trial_num,subj_code,prop_incongruent,resp_type,word,color,trial_type,orientation,resp,is_correct,RT
1,stroop_MarjiMi,.50,key,green,green,congruent,upside_down,g,1,942.0
2,stroop_MarjiMi,.50,key,red,red,congruent,upright,r,1,792.0
3,stroop_MarjiMi,.50,key,green,yellow,incongruent,upright,y,1,1275.0
4,stroop_MarjiMi,.50,key,red,blue,incongruent,upright,b,1,916.0
5,stroop_MarjiMi,.50,key,orange,blue,incongruent,upside_down,b,1,596.0
6,stroop_MarjiMi,.50,key,green,blue,incongruent,upside_down,b,1,514.0
7,stroop_MarjiMi,.50,key,blue,yellow,incongruent,upside_down,y,1,862.0
8,stroop_MarjiMi,.50,key,red,green,incongruent,upside_down,g,1,800.0
9,stroop_MarjiMi,.50,key,yellow,green,incongruent,upside_down,g,1,598.0
10,stroop_MarjiMi,.50,key,green,green,congruent,upright,g,1,466.0
11,stroop_MarjiMi,.50,key,yellow,yellow,congruent,upside_down,y,1,684.0
12,stroop_MarjiMi,.50,key,green,green,congruent,upright,g,1,607.0
13,stroop_MarjiMi,.50,key,blue,blue,congruent,upright,b,1,695.0
14,stroop_MarjiMi,.50,key,red,red,congruent,upside_down,r,1,845.0
15,stroop_MarjiMi,.50,key,red,orange,incongruent,upside_down,o,1,1340.0
16,stroop_MarjiMi,.50,key,green,orange,incongruent,upright,o,1,617.0
17,stroop_MarjiMi,.50,key,green,orange,incongruent,upside_down,o,1,604.0
18,stroop_MarjiMi,.50,key,orange,orange,congruent,upside_down,o,1,407.0
19,stroop_MarjiMi,.50,key,blue,red,incongruent,upside_down,r,1,920.0
20,stroop_MarjiMi,.50,key,orange,blue,incongruent,upside_down,b,1,1007.0
21,stroop_MarjiMi,.50,key,yellow,yellow,congruent,upright,y,1,722.0
22,stroop_MarjiMi,.50,key,red,orange,incongruent,upside_down,o,1,1003.0
23,stroop_MarjiMi,.50,key,green,blue,incongruent,upright,b,1,799.0
24,stroop_MarjiMi,.50,key,orange,yellow,incongruent,upright,y,1,776.0
25,stroop_MarjiMi,.50,key,red,red,congruent,upright,r,1,765.0
26,stroop_MarjiMi,.50,key,blue,orange,incongruent,upright,o,1,887.0
27,stroop_MarjiMi,.50,key,red,blue,incongruent,upside_down,b,1,904.0
28,stroop_MarjiMi,.50,key,green,yellow,incongruent,upside_down,y,1,770.0
29,stroop_MarjiMi,.50,key,yellow,yellow,congruent,upright,y,1,599.0
30,stroop_MarjiMi,.50,key,yellow,yellow,congruent,upright,y,1,541.0
31,stroop_MarjiMi,.50,key,orange,red,incongruent,upright,r,1,922.0
32,stroop_MarjiMi,.50,key,orange,green,incongruent,upright,g,1,1007.0
33,stroop_MarjiMi,.50,key,orange,red,incongruent,upright,r,1,795.0
34,stroop_MarjiMi,.50,key,orange,orange,congruent,upright,o,1,763.0
35,stroop_MarjiMi,.50,key,orange,orange,congruent,upside_down,o,1,455.0
36,stroop_MarjiMi,.50,key,orange,orange,congruent,upright,o,1,395.0
37,stroop_MarjiMi,.50,key,yellow,blue,incongruent,upright,b,1,731.0
38,stroop_MarjiMi,.50,key,red,red,congruent,upside_down,r,1,653.0
39,stroop_MarjiMi,.50,key,green,red,incongruent,upside_down,r,1,428.0
40,stroop_MarjiMi,.50,key,yellow,yellow,congruent,upright,y,1,737.0
41,stroop_MarjiMi,.50,key,blue,yellow,incongruent,upright,y,1,796.0
42,stroop_MarjiMi,.50,key,red,green,incongruent,upside_down,g,1,932.0
43,stroop_MarjiMi,.50,key,red,yellow,incongruent,upright,y,1,684.0
44,stroop_MarjiMi,.50,key,blue,red,incongruent,upside_down,r,1,896.0
45,stroop_MarjiMi,.50,key,yellow,green,incongruent,upside_down,g,1,874.0
46,stroop_MarjiMi,.50,key,orange,red,incongruent,upright,r,1,903.0
47,stroop_MarjiMi,.50,key,orange,orange,congruent,upside_down,o,1,753.0
48,stroop_MarjiMi,.50,key,blue,green,incongruent,upside_down,g,1,735.0
49,stroop_MarjiMi,.50,key,red,blue,incongruent,upside_down,b,1,890.0
50,stroop_MarjiMi,.50,key,orange,orange,congruent,upside_down,o,1,712.0
51,stroop_MarjiMi,.50,key,green,orange,incongruent,upright,o,1,890.0
52,stroop_MarjiMi,.50,key,orange,orange,congruent,upright,o,1,421.0
53,stroop_MarjiMi,.50,key,green,green,congruent,upside_down,g,1,698.0
54,stroop_MarjiMi,.50,key,orange,orange,congruent,upside_down,o,1,756.0
55,stroop_MarjiMi,.50,key,yellow,yellow,congruent,upside_down,y,1,667.0
56,stroop_MarjiMi,.50,key,yellow,yellow,congruent,upright,y,1,572.0
57,stroop_MarjiMi,.50,key,orange,green,incongruent,upright,g,1,1090.0
58,stroop_MarjiMi,.50,key,orange,yellow,incongruent,upside_down,y,1,1095.0
59,stroop_MarjiMi,.50,key,green,green,congruent,upright,g,1,692.0
60,stroop_MarjiMi,.50,key,orange,orange,congruent,upside_down,o,1,795.0
61,stroop_MarjiMi,.50,key,green,orange,incongruent,upright,o,1,1230.0
62,stroop_MarjiMi,.50,key,blue,blue,congruent,upside_down,b,1,765.0
63,stroop_MarjiMi,.50,key,yellow,yellow,congruent,upright,y,1,721.0
64,stroop_MarjiMi,.50,key,blue,blue,congruent,upside_down,b,1,700.0
65,stroop_MarjiMi,.50,key,blue,blue,congruent,upright,b,1,530.0
66,stroop_MarjiMi,.50,key,orange,orange,congruent,upside_down,o,1,831.0
67,stroop_MarjiMi,.50,key,yellow,yellow,congruent,upside_down,y,1,687.0
68,stroop_MarjiMi,.50,key,yellow,red,incongruent,upside_down,r,1,832.0
69,stroop_MarjiMi,.50,key,blue,red,incongruent,upside_down,r,1,540.0
70,stroop_MarjiMi,.50,key,green,green,congruent,upright,g,1,721.0
71,stroop_MarjiMi,.50,key,yellow,yellow,congruent,upside_down,y,1,474.0
72,stroop_MarjiMi,.50,key,orange,orange,congruent,upside_down,o,1,817.0
73,stroop_MarjiMi,.50,key,yellow,yellow,congruent,upright,y,1,656.0
74,stroop_MarjiMi,.50,key,orange,orange,congruent,upside_down,o,1,727.0
75,stroop_MarjiMi,.50,key,green,orange,incongruent,upside_down,o,1,738.0
76,stroop_MarjiMi,.50,key,blue,yellow,incongruent,upright,y,1,985.0
77,stroop_MarjiMi,.50,key,yellow,yellow,congruent,upright,y,1,548.0
78,stroop_MarjiMi,.50,key,green,green,congruent,upright,g,1,771.0
79,stroop_MarjiMi,.50,key,blue,blue,congruent,upright,b,1,652.0
80,stroop_MarjiMi,.50,key,green,green,congruent,upright,g,1,674.0
81,stroop_MarjiMi,.50,key,red,red,congruent,upright,r,1,792.0
82,stroop_MarjiMi,.50,key,yellow,green,incongruent,upright,g,1,888.0
83,stroop_MarjiMi,.50,key,orange,orange,congruent,upside_down,o,1,727.0
84,stroop_MarjiMi,.50,key,green,green,congruent,upside_down,g,1,672.0
85,stroop_MarjiMi,.50,key,yellow,orange,incongruent,upside_down,o,1,939.0
86,stroop_MarjiMi,.50,key,red,red,congruent,upside_down,r,1,837.0
87,stroop_MarjiMi,.50,key,blue,yellow,incongruent,upright,y,1,740.0
88,stroop_MarjiMi,.50,key,orange,yellow,incongruent,upright,y,1,528.0
89,stroop_MarjiMi,.50,key,red,yellow,incongruent,upright,y,1,548.0
90,stroop_MarjiMi,.50,key,red,orange,incongruent,upright,o,1,849.0
91,stroop_MarjiMi,.50,key,blue,orange,incongruent,upside_down,o,1,787.0
92,stroop_MarjiMi,.50,key,yellow,yellow,congruent,upright,y,1,711.0
93,stroop_MarjiMi,.50,key,yellow,red,incongruent,upright,r,1,782.0
94,stroop_MarjiMi,.50,key,green,green,congruent,upside_down,g,1,754.0
95,stroop_MarjiMi,.50,key,red,red,congruent,upright,r,1,686.0
96,stroop_MarjiMi,.50,key,green,green,congruent,upright,g,1,727.0
97,stroop_MarjiMi,.50,key,red,red,congruent,upright,r,1,725.0
98,stroop_MarjiMi,.50,key,red,blue,incongruent,upside_down,b,1,943.0
99,stroop_MarjiMi,.50,key,red,green,incongruent,upside_down,g,1,772.0
100,stroop_MarjiMi,.50,key,orange,red,incongruent,upside_down,r,1,879.0
1,stroop_PsychLH2022,.25,key,blue,blue,congruent,upright,b,1,637.0
2,stroop_PsychLH2022,.25,key,blue,red,incongruent,upright,r,1,656.0
3,stroop_PsychLH2022,.25,key,orange,orange,congruent,upside_down,o,1,999.0
4,stroop_PsychLH2022,.25,key,red,red,congruent,upside_down,r,1,811.0
5,stroop_PsychLH2022,.25,key,orange,orange,congruent,upside_down,o,1,610.0
6,stroop_PsychLH2022,.25,key,blue,blue,congruent,upside_down,b,1,753.0
7,stroop_PsychLH2022,.25,key,red,red,congruent,upright,r,1,565.0
8,stroop_PsychLH2022,.25,key,green,green,congruent,upright,g,1,617.0
9,stroop_PsychLH2022,.25,key,green,green,congruent,upside_down,g,1,438.0
10,stroop_PsychLH2022,.25,key,blue,orange,incongruent,upside_down,o,1,710.0
11,stroop_PsychLH2022,.25,key,blue,blue,congruent,upright,b,1,547.0
12,stroop_PsychLH2022,.25,key,green,green,congruent,upright,g,1,656.0
13,stroop_PsychLH2022,.25,key,green,green,congruent,upright,g,1,418.0
14,stroop_PsychLH2022,.25,key,orange,orange,congruent,upright,o,1,669.0
15,stroop_PsychLH2022,.25,key,blue,blue,congruent,upside_down,b,1,708.0
16,stroop_PsychLH2022,.25,key,red,red,congruent,upright,r,1,498.0
17,stroop_PsychLH2022,.25,key,green,orange,incongruent,upright,o,1,1120.0
18,stroop_PsychLH2022,.25,key,yellow,yellow,congruent,upright,y,1,703.0
19,stroop_PsychLH2022,.25,key,blue,blue,congruent,upright,b,1,643.0
20,stroop_PsychLH2022,.25,key,orange,orange,congruent,upside_down,o,1,548.0
21,stroop_PsychLH2022,.25,key,yellow,yellow,congruent,upright,y,1,551.0
22,stroop_PsychLH2022,.25,key,yellow,yellow,congruent,upright,y,1,391.0
23,stroop_PsychLH2022,.25,key,blue,green,incongruent,upright,g,1,864.0
24,stroop_PsychLH2022,.25,key,orange,green,incongruent,upside_down,g,1,700.0
25,stroop_PsychLH2022,.25,key,orange,orange,congruent,upside_down,o,1,489.0
26,stroop_PsychLH2022,.25,key,yellow,yellow,congruent,upright,y,1,367.0
27,stroop_PsychLH2022,.25,key,blue,green,incongruent,upright,g,1,775.0
28,stroop_PsychLH2022,.25,key,yellow,yellow,congruent,upside_down,y,1,1195.0
29,stroop_PsychLH2022,.25,key,blue,blue,congruent,upright,b,1,573.0
30,stroop_PsychLH2022,.25,key,orange,orange,congruent,upside_down,o,1,597.0
31,stroop_PsychLH2022,.25,key,blue,blue,congruent,upright,b,1,530.0
32,stroop_PsychLH2022,.25,key,orange,orange,congruent,upright,o,1,601.0
33,stroop_PsychLH2022,.25,key,green,green,congruent,upright,g,1,579.0
34,stroop_PsychLH2022,.25,key,green,green,congruent,upright,g,1,401.0
35,stroop_PsychLH2022,.25,key,blue,yellow,incongruent,upright,b,0,978.0
36,stroop_PsychLH2022,.25,key,orange,orange,congruent,upright,o,1,509.0
37,stroop_PsychLH2022,.25,key,red,red,congruent,upside_down,r,1,539.0
38,stroop_PsychLH2022,.25,key,blue,blue,congruent,upright,b,1,527.0
39,stroop_PsychLH2022,.25,key,green,green,congruent,upright,g,1,515.0
40,stroop_PsychLH2022,.25,key,blue,blue,congruent,upright,g,0,432.0
41,stroop_PsychLH2022,.25,key,red,red,congruent,upside_down,r,1,525.0
42,stroop_PsychLH2022,.25,key,orange,red,incongruent,upside_down,r,1,724.0
43,stroop_PsychLH2022,.25,key,orange,orange,congruent,upright,o,1,527.0
44,stroop_PsychLH2022,.25,key,orange,orange,congruent,upside_down,o,1,433.0
45,stroop_PsychLH2022,.25,key,orange,green,incongruent,upside_down,g,1,825.0
46,stroop_PsychLH2022,.25,key,orange,orange,congruent,upside_down,o,1,595.0
47,stroop_PsychLH2022,.25,key,yellow,yellow,congruent,upright,y,1,926.0
48,stroop_PsychLH2022,.25,key,blue,blue,congruent,upside_down,b,1,934.0
49,stroop_PsychLH2022,.25,key,yellow,yellow,congruent,upside_down,y,1,817.0
50,stroop_PsychLH2022,.25,key,red,green,incongruent,upside_down,r,0,504.0
51,stroop_PsychLH2022,.25,key,yellow,yellow,congruent,upright,y,1,495.0
52,stroop_PsychLH2022,.25,key,orange,blue,incongruent,upright,o,0,1025.0
53,stroop_PsychLH2022,.25,key,orange,orange,congruent,upright,o,1,609.0
54,stroop_PsychLH2022,.25,key,blue,blue,congruent,upright,b,1,548.0
55,stroop_PsychLH2022,.25,key,red,red,congruent,upside_down,r,1,600.0
56,stroop_PsychLH2022,.25,key,yellow,yellow,congruent,upright,y,1,510.0
57,stroop_PsychLH2022,.25,key,yellow,blue,incongruent,upright,b,1,744.0
58,stroop_PsychLH2022,.25,key,blue,blue,congruent,upright,b,1,436.0
59,stroop_PsychLH2022,.25,key,yellow,yellow,congruent,upside_down,y,1,560.0
60,stroop_PsychLH2022,.25,key,yellow,orange,incongruent,upright,o,1,644.0
61,stroop_PsychLH2022,.25,key,blue,blue,congruent,upside_down,b,1,719.0
62,stroop_PsychLH2022,.25,key,orange,blue,incongruent,upside_down,b,1,513.0
63,stroop_PsychLH2022,.25,key,red,red,congruent,upside_down,r,1,693.0
64,stroop_PsychLH2022,.25,key,orange,yellow,incongruent,upside_down,o,0,536.0
65,stroop_PsychLH2022,.25,key,red,orange,incongruent,upright,o,1,821.0
66,stroop_PsychLH2022,.25,key,orange,orange,congruent,upside_down,o,1,627.0
67,stroop_PsychLH2022,.25,key,green,red,incongruent,upside_down,r,1,813.0
68,stroop_PsychLH2022,.25,key,yellow,yellow,congruent,upside_down,y,1,696.0
69,stroop_PsychLH2022,.25,key,yellow,yellow,congruent,upside_down,y,1,515.0
70,stroop_PsychLH2022,.25,key,orange,orange,congruent,upside_down,o,1,583.0
71,stroop_PsychLH2022,.25,key,red,red,congruent,upright,r,1,508.0
72,stroop_PsychLH2022,.25,key,red,green,incongruent,upside_down,g,1,572.0
73,stroop_PsychLH2022,.25,key,red,red,congruent,upright,g,0,450.0
74,stroop_PsychLH2022,.25,key,red,red,congruent,upside_down,r,1,558.0
75,stroop_PsychLH2022,.25,key,orange,orange,congruent,upside_down,o,1,506.0
76,stroop_PsychLH2022,.25,key,yellow,yellow,congruent,upside_down,y,1,606.0
77,stroop_PsychLH2022,.25,key,orange,orange,congruent,upside_down,o,1,483.0
78,stroop_PsychLH2022,.25,key,blue,yellow,incongruent,upside_down,y,1,1174.0
79,stroop_PsychLH2022,.25,key,orange,orange,congruent,upright,r,0,720.0
80,stroop_PsychLH2022,.25,key,blue,blue,congruent,upright,b,1,563.0
81,stroop_PsychLH2022,.25,key,blue,blue,congruent,upside_down,b,1,559.0
82,stroop_PsychLH2022,.25,key,red,green,incongruent,upright,g,1,712.0
83,stroop_PsychLH2022,.25,key,orange,blue,incongruent,upright,r,0,827.0
84,stroop_PsychLH2022,.25,key,yellow,yellow,congruent,upside_down,y,1,494.0
85,stroop_PsychLH2022,.25,key,yellow,orange,incongruent,upright,o,1,1244.0
86,stroop_PsychLH2022,.25,key,orange,orange,congruent,upright,o,1,538.0
87,stroop_PsychLH2022,.25,key,green,green,congruent,upright,g,1,562.0
88,stroop_PsychLH2022,.25,key,orange,orange,congruent,upside_down,o,1,484.0
89,stroop_PsychLH2022,.25,key,green,green,congruent,upside_down,g,1,757.0
90,stroop_PsychLH2022,.25,key,red,red,congruent,upside_down,r,1,553.0
91,stroop_PsychLH2022,.25,key,red,orange,incongruent,upside_down,o,1,770.0
92,stroop_PsychLH2022,.25,key,yellow,yellow,congruent,upside_down,y,1,575.0
93,stroop_PsychLH2022,.25,key,yellow,blue,incongruent,upside_down,b,1,682.0
94,stroop_PsychLH2022,.25,key,red,red,congruent,upright,r,1,1151.0
95,stroop_PsychLH2022,.25,key,orange,orange,congruent,upside_down,o,1,824.0
96,stroop_PsychLH2022,.25,key,orange,orange,congruent,upright,o,1,568.0
97,stroop_PsychLH2022,.25,key,red,red,congruent,upside_down,r,1,523.0
98,stroop_PsychLH2022,.25,key,blue,blue,congruent,upright,b,1,558.0
99,stroop_PsychLH2022,.25,key,yellow,yellow,congruent,upside_down,y,1,521.0
100,stroop_PsychLH2022,.25,key,green,yellow,incongruent,upside_down,y,1,445.0
1,stroop_Yuanxue,.25,key,orange,orange,congruent,upside_down,o,1,1548.0
2,stroop_Yuanxue,.25,key,green,green,congruent,upside_down,g,1,754.0
3,stroop_Yuanxue,.25,key,blue,blue,congruent,upright,b,1,745.0
4,stroop_Yuanxue,.25,key,red,yellow,incongruent,upright,r,0,622.0
5,stroop_Yuanxue,.25,key,yellow,yellow,congruent,upright,y,1,777.0
6,stroop_Yuanxue,.25,key,green,green,congruent,upside_down,g,1,721.0
7,stroop_Yuanxue,.25,key,yellow,yellow,congruent,upside_down,y,1,734.0
8,stroop_Yuanxue,.25,key,yellow,yellow,congruent,upside_down,y,1,550.0
9,stroop_Yuanxue,.25,key,blue,blue,congruent,upside_down,b,1,706.0
10,stroop_Yuanxue,.25,key,yellow,yellow,congruent,upright,y,1,426.0
11,stroop_Yuanxue,.25,key,yellow,yellow,congruent,upright,y,1,659.0
12,stroop_Yuanxue,.25,key,blue,blue,congruent,upright,b,1,464.0
13,stroop_Yuanxue,.25,key,orange,orange,congruent,upside_down,o,1,1143.0
14,stroop_Yuanxue,.25,key,green,green,congruent,upright,g,1,760.0
15,stroop_Yuanxue,.25,key,green,green,congruent,upright,b,0,527.0
16,stroop_Yuanxue,.25,key,yellow,yellow,congruent,upside_down,y,1,746.0
17,stroop_Yuanxue,.25,key,orange,orange,congruent,upside_down,o,1,702.0
18,stroop_Yuanxue,.25,key,red,green,incongruent,upside_down,r,0,1319.0
19,stroop_Yuanxue,.25,key,orange,yellow,incongruent,upside_down,o,0,995.0
20,stroop_Yuanxue,.25,key,green,green,congruent,upright,g,1,755.0
21,stroop_Yuanxue,.25,key,yellow,yellow,congruent,upside_down,y,1,997.0
22,stroop_Yuanxue,.25,key,red,red,congruent,upside_down,r,1,820.0
23,stroop_Yuanxue,.25,key,yellow,yellow,congruent,upright,y,1,504.0
24,stroop_Yuanxue,.25,key,orange,orange,congruent,upside_down,o,1,566.0
25,stroop_Yuanxue,.25,key,yellow,red,incongruent,upside_down,y,0,553.0
26,stroop_Yuanxue,.25,key,blue,blue,congruent,upright,b,1,658.0
27,stroop_Yuanxue,.25,key,green,green,congruent,upright,g,1,588.0
28,stroop_Yuanxue,.25,key,yellow,blue,incongruent,upright,b,1,1517.0
29,stroop_Yuanxue,.25,key,red,red,congruent,upright,r,1,621.0
30,stroop_Yuanxue,.25,key,red,red,congruent,upright,r,1,485.0
31,stroop_Yuanxue,.25,key,red,green,incongruent,upside_down,g,1,1254.0
32,stroop_Yuanxue,.25,key,red,red,congruent,upside_down,r,1,772.0
33,stroop_Yuanxue,.25,key,orange,orange,congruent,upright,o,1,531.0
34,stroop_Yuanxue,.25,key,yellow,yellow,congruent,upside_down,y,1,661.0
35,stroop_Yuanxue,.25,key,yellow,red,incongruent,upright,r,1,976.0
36,stroop_Yuanxue,.25,key,blue,red,incongruent,upside_down,r,1,544.0
37,stroop_Yuanxue,.25,key,blue,blue,congruent,upside_down,b,1,605.0
38,stroop_Yuanxue,.25,key,blue,blue,congruent,upside_down,b,1,500.0
39,stroop_Yuanxue,.25,key,yellow,yellow,congruent,upright,o,0,583.0
40,stroop_Yuanxue,.25,key,blue,yellow,incongruent,upright,y,1,1755.0
41,stroop_Yuanxue,.25,key,yellow,yellow,congruent,upright,y,1,484.0
42,stroop_Yuanxue,.25,key,green,orange,incongruent,upright,o,1,1031.0
43,stroop_Yuanxue,.25,key,yellow,yellow,congruent,upright,y,1,635.0
44,stroop_Yuanxue,.25,key,red,red,congruent,upright,r,1,644.0
45,stroop_Yuanxue,.25,key,yellow,yellow,congruent,upright,y,1,566.0
46,stroop_Yuanxue,.25,key,blue,yellow,incongruent,upside_down,y,1,762.0
47,stroop_Yuanxue,.25,key,yellow,green,incongruent,upright,g,1,979.0
48,stroop_Yuanxue,.25,key,red,red,congruent,upright,r,1,632.0
49,stroop_Yuanxue,.25,key,orange,blue,incongruent,upside_down,b,1,1104.0
50,stroop_Yuanxue,.25,key,green,green,congruent,upside_down,g,1,704.0
51,stroop_Yuanxue,.25,key,yellow,yellow,congruent,upright,y,1,588.0
52,stroop_Yuanxue,.25,key,red,orange,incongruent,upside_down,o,1,760.0
53,stroop_Yuanxue,.25,key,blue,orange,incongruent,upright,o,1,517.0
54,stroop_Yuanxue,.25,key,green,green,congruent,upright,g,1,573.0
55,stroop_Yuanxue,.25,key,blue,blue,congruent,upright,b,1,743.0
56,stroop_Yuanxue,.25,key,blue,blue,congruent,upright,b,1,424.0
57,stroop_Yuanxue,.25,key,green,green,congruent,upside_down,o,0,942.0
58,stroop_Yuanxue,.25,key,red,red,congruent,upside_down,r,1,683.0
59,stroop_Yuanxue,.25,key,yellow,yellow,congruent,upright,y,1,566.0
60,stroop_Yuanxue,.25,key,blue,blue,congruent,upright,b,1,526.0
61,stroop_Yuanxue,.25,key,green,green,congruent,upright,g,1,489.0
62,stroop_Yuanxue,.25,key,yellow,yellow,congruent,upside_down,y,1,651.0
63,stroop_Yuanxue,.25,key,green,green,congruent,upside_down,g,1,545.0
64,stroop_Yuanxue,.25,key,orange,orange,congruent,upside_down,o,1,641.0
65,stroop_Yuanxue,.25,key,green,green,congruent,upside_down,g,1,479.0
66,stroop_Yuanxue,.25,key,blue,blue,congruent,upside_down,b,1,481.0
67,stroop_Yuanxue,.25,key,yellow,red,incongruent,upright,y,0,557.0
68,stroop_Yuanxue,.25,key,blue,blue,congruent,upside_down,b,1,712.0
69,stroop_Yuanxue,.25,key,red,yellow,incongruent,upside_down,r,0,899.0
70,stroop_Yuanxue,.25,key,red,red,congruent,upright,r,1,624.0
71,stroop_Yuanxue,.25,key,blue,blue,congruent,upside_down,b,1,552.0
72,stroop_Yuanxue,.25,key,red,red,congruent,upside_down,r,1,738.0
73,stroop_Yuanxue,.25,key,red,red,congruent,upright,r,1,496.0
74,stroop_Yuanxue,.25,key,yellow,yellow,congruent,upside_down,y,1,578.0
75,stroop_Yuanxue,.25,key,green,green,congruent,upright,b,0,603.0
76,stroop_Yuanxue,.25,key,green,green,congruent,upside_down,g,1,474.0
77,stroop_Yuanxue,.25,key,red,red,congruent,upright,r,1,661.0
78,stroop_Yuanxue,.25,key,green,orange,incongruent,upside_down,g,0,600.0
79,stroop_Yuanxue,.25,key,orange,yellow,incongruent,upside_down,o,0,891.0
80,stroop_Yuanxue,.25,key,orange,red,incongruent,upright,r,1,1403.0
81,stroop_Yuanxue,.25,key,green,green,congruent,upside_down,g,1,666.0
82,stroop_Yuanxue,.25,key,yellow,green,incongruent,upside_down,g,1,1204.0
83,stroop_Yuanxue,.25,key,blue,blue,congruent,upright,b,1,667.0
84,stroop_Yuanxue,.25,key,yellow,red,incongruent,upright,r,1,869.0
85,stroop_Yuanxue,.25,key,orange,orange,congruent,upright,o,1,634.0
86,stroop_Yuanxue,.25,key,red,red,congruent,upside_down,r,1,608.0
87,stroop_Yuanxue,.25,key,yellow,yellow,congruent,upright,y,1,705.0
88,stroop_Yuanxue,.25,key,green,green,congruent,upside_down,g,1,731.0
89,stroop_Yuanxue,.25,key,orange,orange,congruent,upside_down,o,1,645.0
90,stroop_Yuanxue,.25,key,green,green,congruent,upside_down,g,1,536.0
91,stroop_Yuanxue,.25,key,orange,blue,incongruent,upright,b,1,1098.0
92,stroop_Yuanxue,.25,key,blue,blue,congruent,upright,b,1,444.0
93,stroop_Yuanxue,.25,key,green,orange,incongruent,upside_down,o,1,839.0
94,stroop_Yuanxue,.25,key,yellow,yellow,congruent,upright,y,1,650.0
95,stroop_Yuanxue,.25,key,green,blue,incongruent,upside_down,b,1,892.0
96,stroop_Yuanxue,.25,key,green,green,congruent,upright,g,1,1090.0
97,stroop_Yuanxue,.25,key,green,green,congruent,upright,g,1,395.0
98,stroop_Yuanxue,.25,key,blue,blue,congruent,upside_down,b,1,717.0
99,stroop_Yuanxue,.25,key,yellow,yellow,congruent,upright,y,1,778.0
100,stroop_Yuanxue,.25,key,yellow,yellow,congruent,upside_down,y,1,450.0
1,stroop_ZhuolunZhong,.75,key,red,green,incongruent,upright,NA,0,NA
2,stroop_ZhuolunZhong,.75,key,red,yellow,incongruent,upright,y,1,1600.0
3,stroop_ZhuolunZhong,.75,key,green,blue,incongruent,upright,b,1,1311.0
4,stroop_ZhuolunZhong,.75,key,green,orange,incongruent,upside_down,o,1,1266.0
5,stroop_ZhuolunZhong,.75,key,blue,red,incongruent,upside_down,r,1,906.0
6,stroop_ZhuolunZhong,.75,key,yellow,blue,incongruent,upside_down,b,1,1325.0
7,stroop_ZhuolunZhong,.75,key,blue,orange,incongruent,upside_down,o,1,1808.0
8,stroop_ZhuolunZhong,.75,key,green,orange,incongruent,upside_down,o,1,938.0
9,stroop_ZhuolunZhong,.75,key,blue,blue,congruent,upright,b,1,839.0
10,stroop_ZhuolunZhong,.75,key,orange,blue,incongruent,upright,o,0,250.0
11,stroop_ZhuolunZhong,.75,key,blue,yellow,incongruent,upright,o,0,1541.0
12,stroop_ZhuolunZhong,.75,key,blue,green,incongruent,upright,NA,0,NA
13,stroop_ZhuolunZhong,.75,key,green,orange,incongruent,upside_down,o,1,953.0
14,stroop_ZhuolunZhong,.75,key,red,orange,incongruent,upside_down,o,1,916.0
15,stroop_ZhuolunZhong,.75,key,yellow,red,incongruent,upright,r,1,1340.0
16,stroop_ZhuolunZhong,.75,key,orange,blue,incongruent,upside_down,b,1,1389.0
17,stroop_ZhuolunZhong,.75,key,red,yellow,incongruent,upside_down,y,1,1724.0
18,stroop_ZhuolunZhong,.75,key,red,blue,incongruent,upright,b,1,822.0
19,stroop_ZhuolunZhong,.75,key,red,green,incongruent,upright,g,1,1034.0
20,stroop_ZhuolunZhong,.75,key,orange,yellow,incongruent,upright,y,1,1309.0
21,stroop_ZhuolunZhong,.75,key,green,blue,incongruent,upside_down,b,1,1000.0
22,stroop_ZhuolunZhong,.75,key,orange,green,incongruent,upright,g,1,1001.0
23,stroop_ZhuolunZhong,.75,key,yellow,orange,incongruent,upright,o,1,1632.0
24,stroop_ZhuolunZhong,.75,key,yellow,red,incongruent,upright,r,1,839.0
25,stroop_ZhuolunZhong,.75,key,yellow,orange,incongruent,upright,o,1,1553.0
26,stroop_ZhuolunZhong,.75,key,blue,blue,congruent,upside_down,b,1,678.0
27,stroop_ZhuolunZhong,.75,key,red,blue,incongruent,upside_down,b,1,1033.0
28,stroop_ZhuolunZhong,.75,key,blue,green,incongruent,upright,g,1,952.0
29,stroop_ZhuolunZhong,.75,key,red,yellow,incongruent,upside_down,y,1,1073.0
30,stroop_ZhuolunZhong,.75,key,red,orange,incongruent,upright,o,1,1056.0
31,stroop_ZhuolunZhong,.75,key,green,red,incongruent,upright,r,1,913.0
32,stroop_ZhuolunZhong,.75,key,green,red,incongruent,upright,r,1,1084.0
33,stroop_ZhuolunZhong,.75,key,blue,red,incongruent,upright,r,1,779.0
34,stroop_ZhuolunZhong,.75,key,red,blue,incongruent,upright,b,1,869.0
35,stroop_ZhuolunZhong,.75,key,blue,green,incongruent,upside_down,g,1,1178.0
36,stroop_ZhuolunZhong,.75,key,green,yellow,incongruent,upside_down,y,1,1068.0
37,stroop_ZhuolunZhong,.75,key,green,green,congruent,upside_down,g,1,823.0
38,stroop_ZhuolunZhong,.75,key,red,blue,incongruent,upside_down,b,1,1196.0
39,stroop_ZhuolunZhong,.75,key,yellow,green,incongruent,upside_down,g,1,826.0
40,stroop_ZhuolunZhong,.75,key,orange,orange,congruent,upright,o,1,1341.0
41,stroop_ZhuolunZhong,.75,key,blue,blue,congruent,upside_down,b,1,570.0
42,stroop_ZhuolunZhong,.75,key,yellow,blue,incongruent,upside_down,b,1,555.0
43,stroop_ZhuolunZhong,.75,key,blue,blue,congruent,upright,b,1,401.0
44,stroop_ZhuolunZhong,.75,key,yellow,blue,incongruent,upright,b,1,449.0
45,stroop_ZhuolunZhong,.75,key,yellow,yellow,congruent,upside_down,y,1,967.0
46,stroop_ZhuolunZhong,.75,key,orange,orange,congruent,upside_down,o,1,870.0
47,stroop_ZhuolunZhong,.75,key,orange,yellow,incongruent,upside_down,y,1,973.0
48,stroop_ZhuolunZhong,.75,key,orange,green,incongruent,upright,g,1,1199.0
49,stroop_ZhuolunZhong,.75,key,green,red,incongruent,upright,r,1,793.0
50,stroop_ZhuolunZhong,.75,key,blue,yellow,incongruent,upright,y,1,1069.0
51,stroop_ZhuolunZhong,.75,key,green,green,congruent,upside_down,g,1,762.0
52,stroop_ZhuolunZhong,.75,key,blue,orange,incongruent,upright,b,0,885.0
53,stroop_ZhuolunZhong,.75,key,green,red,incongruent,upside_down,r,1,840.0
54,stroop_ZhuolunZhong,.75,key,yellow,yellow,congruent,upright,y,1,1478.0
55,stroop_ZhuolunZhong,.75,key,green,green,congruent,upright,g,1,679.0
56,stroop_ZhuolunZhong,.75,key,orange,yellow,incongruent,upright,y,1,942.0
57,stroop_ZhuolunZhong,.75,key,orange,green,incongruent,upside_down,g,1,988.0
58,stroop_ZhuolunZhong,.75,key,blue,orange,incongruent,upside_down,o,1,1111.0
59,stroop_ZhuolunZhong,.75,key,yellow,yellow,congruent,upright,y,1,602.0
60,stroop_ZhuolunZhong,.75,key,green,green,congruent,upside_down,g,1,789.0
61,stroop_ZhuolunZhong,.75,key,orange,green,incongruent,upside_down,g,1,694.0
62,stroop_ZhuolunZhong,.75,key,green,orange,incongruent,upside_down,o,1,1058.0
63,stroop_ZhuolunZhong,.75,key,yellow,yellow,congruent,upside_down,y,1,563.0
64,stroop_ZhuolunZhong,.75,key,orange,red,incongruent,upright,r,1,975.0
65,stroop_ZhuolunZhong,.75,key,blue,blue,congruent,upright,b,1,625.0
66,stroop_ZhuolunZhong,.75,key,blue,yellow,incongruent,upside_down,y,1,1779.0
67,stroop_ZhuolunZhong,.75,key,green,green,congruent,upright,g,1,665.0
68,stroop_ZhuolunZhong,.75,key,orange,green,incongruent,upright,g,1,1114.0
69,stroop_ZhuolunZhong,.75,key,orange,green,incongruent,upside_down,g,1,438.0
70,stroop_ZhuolunZhong,.75,key,yellow,blue,incongruent,upside_down,b,1,1686.0
71,stroop_ZhuolunZhong,.75,key,blue,yellow,incongruent,upside_down,y,1,1111.0
72,stroop_ZhuolunZhong,.75,key,red,blue,incongruent,upright,b,1,1034.0
73,stroop_ZhuolunZhong,.75,key,orange,green,incongruent,upside_down,g,1,884.0
74,stroop_ZhuolunZhong,.75,key,green,red,incongruent,upright,r,1,772.0
75,stroop_ZhuolunZhong,.75,key,orange,orange,congruent,upright,o,1,779.0
76,stroop_ZhuolunZhong,.75,key,orange,orange,congruent,upside_down,o,1,603.0
77,stroop_ZhuolunZhong,.75,key,blue,red,incongruent,upright,b,0,656.0
78,stroop_ZhuolunZhong,.75,key,orange,orange,congruent,upside_down,o,1,764.0
79,stroop_ZhuolunZhong,.75,key,green,orange,incongruent,upright,o,1,1294.0
80,stroop_ZhuolunZhong,.75,key,yellow,red,incongruent,upside_down,r,1,816.0
81,stroop_ZhuolunZhong,.75,key,orange,blue,incongruent,upside_down,b,1,1025.0
82,stroop_ZhuolunZhong,.75,key,red,yellow,incongruent,upside_down,y,1,782.0
83,stroop_ZhuolunZhong,.75,key,orange,orange,congruent,upside_down,o,1,720.0
84,stroop_ZhuolunZhong,.75,key,blue,blue,congruent,upside_down,b,1,642.0
85,stroop_ZhuolunZhong,.75,key,orange,red,incongruent,upright,r,1,1020.0
86,stroop_ZhuolunZhong,.75,key,red,green,incongruent,upright,g,1,1008.0
87,stroop_ZhuolunZhong,.75,key,blue,blue,congruent,upright,b,1,567.0
88,stroop_ZhuolunZhong,.75,key,red,blue,incongruent,upright,b,1,493.0
89,stroop_ZhuolunZhong,.75,key,red,blue,incongruent,upright,b,1,386.0
90,stroop_ZhuolunZhong,.75,key,green,yellow,incongruent,upside_down,y,1,1052.0
91,stroop_ZhuolunZhong,.75,key,green,red,incongruent,upside_down,r,1,673.0
92,stroop_ZhuolunZhong,.75,key,yellow,red,incongruent,upside_down,r,1,438.0
93,stroop_ZhuolunZhong,.75,key,red,red,congruent,upright,r,1,444.0
94,stroop_ZhuolunZhong,.75,key,blue,blue,congruent,upside_down,b,1,606.0
95,stroop_ZhuolunZhong,.75,key,blue,green,incongruent,upright,y,0,969.0
96,stroop_ZhuolunZhong,.75,key,red,blue,incongruent,upside_down,b,1,910.0
97,stroop_ZhuolunZhong,.75,key,green,blue,incongruent,upright,b,1,639.0
98,stroop_ZhuolunZhong,.75,key,green,red,incongruent,upside_down,r,1,620.0
99,stroop_ZhuolunZhong,.75,key,green,green,congruent,upright,g,1,757.0
100,stroop_ZhuolunZhong,.75,key,green,orange,incongruent,upside_down,o,1,1161.0
1,stroop_andreagraystein,.50,key,blue,blue,congruent,upright,b,1,790.0
2,stroop_andreagraystein,.50,key,yellow,yellow,congruent,upright,y,1,832.0
3,stroop_andreagraystein,.50,key,blue,blue,congruent,upside_down,b,1,650.0
4,stroop_andreagraystein,.50,key,red,orange,incongruent,upside_down,o,1,939.0
5,stroop_andreagraystein,.50,key,red,yellow,incongruent,upright,y,1,836.0
6,stroop_andreagraystein,.50,key,green,green,congruent,upside_down,g,1,643.0
7,stroop_andreagraystein,.50,key,yellow,red,incongruent,upright,r,1,975.0
8,stroop_andreagraystein,.50,key,red,yellow,incongruent,upside_down,y,1,1022.0
9,stroop_andreagraystein,.50,key,orange,blue,incongruent,upright,b,1,800.0
10,stroop_andreagraystein,.50,key,blue,red,incongruent,upside_down,r,1,715.0
11,stroop_andreagraystein,.50,key,red,green,incongruent,upside_down,g,1,711.0
12,stroop_andreagraystein,.50,key,yellow,yellow,congruent,upright,y,1,772.0
13,stroop_andreagraystein,.50,key,red,yellow,incongruent,upside_down,y,1,1027.0
14,stroop_andreagraystein,.50,key,green,blue,incongruent,upright,b,1,820.0
15,stroop_andreagraystein,.50,key,yellow,yellow,congruent,upside_down,y,1,740.0
16,stroop_andreagraystein,.50,key,orange,orange,congruent,upside_down,o,1,762.0
17,stroop_andreagraystein,.50,key,green,yellow,incongruent,upright,y,1,873.0
18,stroop_andreagraystein,.50,key,red,yellow,incongruent,upside_down,y,1,872.0
19,stroop_andreagraystein,.50,key,green,blue,incongruent,upright,b,1,790.0
20,stroop_andreagraystein,.50,key,yellow,orange,incongruent,upside_down,o,1,820.0
21,stroop_andreagraystein,.50,key,green,green,congruent,upright,g,1,593.0
22,stroop_andreagraystein,.50,key,blue,red,incongruent,upside_down,r,1,777.0
23,stroop_andreagraystein,.50,key,green,green,congruent,upright,g,1,548.0
24,stroop_andreagraystein,.50,key,red,blue,incongruent,upright,b,1,816.0
25,stroop_andreagraystein,.50,key,yellow,orange,incongruent,upright,o,1,785.0
26,stroop_andreagraystein,.50,key,red,red,congruent,upside_down,r,1,544.0
27,stroop_andreagraystein,.50,key,green,orange,incongruent,upside_down,o,1,891.0
28,stroop_andreagraystein,.50,key,green,yellow,incongruent,upright,y,1,923.0
29,stroop_andreagraystein,.50,key,blue,blue,congruent,upright,b,1,673.0
30,stroop_andreagraystein,.50,key,yellow,blue,incongruent,upside_down,b,1,805.0
31,stroop_andreagraystein,.50,key,blue,blue,congruent,upright,b,1,620.0
32,stroop_andreagraystein,.50,key,yellow,yellow,congruent,upright,y,1,727.0
33,stroop_andreagraystein,.50,key,yellow,yellow,congruent,upside_down,y,1,753.0
34,stroop_andreagraystein,.50,key,yellow,orange,incongruent,upside_down,o,1,744.0
35,stroop_andreagraystein,.50,key,red,red,congruent,upright,r,1,569.0
36,stroop_andreagraystein,.50,key,orange,blue,incongruent,upside_down,b,1,833.0
37,stroop_andreagraystein,.50,key,yellow,yellow,congruent,upright,y,1,727.0
38,stroop_andreagraystein,.50,key,green,green,congruent,upright,g,1,564.0
39,stroop_andreagraystein,.50,key,orange,orange,congruent,upright,o,1,696.0
40,stroop_andreagraystein,.50,key,yellow,blue,incongruent,upside_down,b,1,674.0
41,stroop_andreagraystein,.50,key,yellow,yellow,congruent,upside_down,y,1,718.0
42,stroop_andreagraystein,.50,key,yellow,yellow,congruent,upside_down,y,1,611.0
43,stroop_andreagraystein,.50,key,green,green,congruent,upside_down,g,1,542.0
44,stroop_andreagraystein,.50,key,green,green,congruent,upright,g,1,569.0
45,stroop_andreagraystein,.50,key,blue,blue,congruent,upside_down,b,1,670.0
46,stroop_andreagraystein,.50,key,orange,blue,incongruent,upside_down,b,1,819.0
47,stroop_andreagraystein,.50,key,red,red,congruent,upright,r,1,502.0
48,stroop_andreagraystein,.50,key,blue,blue,congruent,upright,b,1,628.0
49,stroop_andreagraystein,.50,key,yellow,yellow,congruent,upright,y,1,769.0
50,stroop_andreagraystein,.50,key,yellow,orange,incongruent,upright,o,1,739.0
51,stroop_andreagraystein,.50,key,red,blue,incongruent,upright,b,1,690.0
52,stroop_andreagraystein,.50,key,orange,orange,congruent,upright,o,1,622.0
53,stroop_andreagraystein,.50,key,yellow,yellow,congruent,upside_down,y,1,644.0
54,stroop_andreagraystein,.50,key,blue,orange,incongruent,upside_down,o,1,767.0
55,stroop_andreagraystein,.50,key,green,green,congruent,upright,g,1,609.0
56,stroop_andreagraystein,.50,key,blue,blue,congruent,upside_down,b,1,679.0
57,stroop_andreagraystein,.50,key,green,red,incongruent,upside_down,o,0,575.0
58,stroop_andreagraystein,.50,key,blue,blue,congruent,upside_down,b,1,681.0
59,stroop_andreagraystein,.50,key,orange,orange,congruent,upside_down,o,1,778.0
60,stroop_andreagraystein,.50,key,green,green,congruent,upside_down,g,1,576.0
61,stroop_andreagraystein,.50,key,green,green,congruent,upside_down,g,1,593.0
62,stroop_andreagraystein,.50,key,green,blue,incongruent,upside_down,b,1,767.0
63,stroop_andreagraystein,.50,key,orange,orange,congruent,upside_down,o,1,597.0
64,stroop_andreagraystein,.50,key,blue,red,incongruent,upright,r,1,733.0
65,stroop_andreagraystein,.50,key,red,yellow,incongruent,upside_down,y,1,851.0
66,stroop_andreagraystein,.50,key,yellow,green,incongruent,upright,g,1,704.0
67,stroop_andreagraystein,.50,key,orange,red,incongruent,upright,r,1,742.0
68,stroop_andreagraystein,.50,key,green,green,congruent,upright,g,1,582.0
69,stroop_andreagraystein,.50,key,red,red,congruent,upright,r,1,676.0
70,stroop_andreagraystein,.50,key,yellow,red,incongruent,upside_down,r,1,842.0
71,stroop_andreagraystein,.50,key,yellow,red,incongruent,upside_down,r,1,828.0
72,stroop_andreagraystein,.50,key,green,green,congruent,upright,g,1,641.0
73,stroop_andreagraystein,.50,key,orange,yellow,incongruent,upright,y,1,894.0
74,stroop_andreagraystein,.50,key,green,green,congruent,upright,g,1,538.0
75,stroop_andreagraystein,.50,key,orange,orange,congruent,upright,o,1,612.0
76,stroop_andreagraystein,.50,key,blue,green,incongruent,upside_down,g,1,699.0
77,stroop_andreagraystein,.50,key,green,yellow,incongruent,upside_down,y,1,803.0
78,stroop_andreagraystein,.50,key,orange,orange,congruent,upright,o,1,652.0
79,stroop_andreagraystein,.50,key,blue,blue,congruent,upright,b,1,637.0
80,stroop_andreagraystein,.50,key,yellow,orange,incongruent,upright,y,0,798.0
81,stroop_andreagraystein,.50,key,yellow,yellow,congruent,upright,y,1,701.0
82,stroop_andreagraystein,.50,key,red,red,congruent,upside_down,r,1,573.0
83,stroop_andreagraystein,.50,key,red,yellow,incongruent,upright,y,1,1080.0
84,stroop_andreagraystein,.50,key,red,blue,incongruent,upright,b,1,1071.0
85,stroop_andreagraystein,.50,key,blue,yellow,incongruent,upside_down,y,1,1035.0
86,stroop_andreagraystein,.50,key,green,red,incongruent,upright,r,1,749.0
87,stroop_andreagraystein,.50,key,yellow,orange,incongruent,upside_down,o,1,874.0
88,stroop_andreagraystein,.50,key,blue,orange,incongruent,upside_down,o,1,1377.0
89,stroop_andreagraystein,.50,key,orange,orange,congruent,upside_down,o,1,629.0
90,stroop_andreagraystein,.50,key,blue,blue,congruent,upright,b,1,679.0
91,stroop_andreagraystein,.50,key,blue,blue,congruent,upside_down,b,1,703.0
92,stroop_andreagraystein,.50,key,green,green,congruent,upright,g,1,683.0
93,stroop_andreagraystein,.50,key,yellow,blue,incongruent,upside_down,b,1,1130.0
94,stroop_andreagraystein,.50,key,blue,green,incongruent,upright,g,1,713.0
95,stroop_andreagraystein,.50,key,blue,orange,incongruent,upright,o,1,783.0
96,stroop_andreagraystein,.50,key,orange,blue,incongruent,upside_down,b,1,851.0
97,stroop_andreagraystein,.50,key,orange,yellow,incongruent,upside_down,y,1,824.0
98,stroop_andreagraystein,.50,key,orange,orange,congruent,upright,o,1,700.0
99,stroop_andreagraystein,.50,key,orange,green,incongruent,upside_down,g,1,699.0
100,stroop_andreagraystein,.50,key,red,red,congruent,upside_down,r,1,649.0
1,stroop_drewbeatty,.50,key,green,orange,incongruent,upside_down,o,1,1420.0
2,stroop_drewbeatty,.50,key,orange,orange,congruent,upright,o,1,1355.0
3,stroop_drewbeatty,.50,key,orange,orange,congruent,upright,o,1,547.0
4,stroop_drewbeatty,.50,key,yellow,blue,incongruent,upside_down,b,1,1054.0
5,stroop_drewbeatty,.50,key,blue,orange,incongruent,upright,o,1,865.0
6,stroop_drewbeatty,.50,key,blue,red,incongruent,upside_down,r,1,884.0
7,stroop_drewbeatty,.50,key,green,red,incongruent,upside_down,r,1,848.0
8,stroop_drewbeatty,.50,key,blue,yellow,incongruent,upside_down,y,1,869.0
9,stroop_drewbeatty,.50,key,yellow,yellow,congruent,upside_down,y,1,599.0
10,stroop_drewbeatty,.50,key,yellow,yellow,congruent,upright,y,1,487.0
11,stroop_drewbeatty,.50,key,orange,yellow,incongruent,upside_down,y,1,1065.0
12,stroop_drewbeatty,.50,key,yellow,green,incongruent,upright,g,1,924.0
13,stroop_drewbeatty,.50,key,yellow,yellow,congruent,upright,y,1,736.0
14,stroop_drewbeatty,.50,key,yellow,yellow,congruent,upright,y,1,640.0
15,stroop_drewbeatty,.50,key,red,red,congruent,upright,r,1,976.0
16,stroop_drewbeatty,.50,key,red,red,congruent,upside_down,r,1,606.0
17,stroop_drewbeatty,.50,key,green,green,congruent,upright,g,1,1134.0
18,stroop_drewbeatty,.50,key,red,orange,incongruent,upside_down,o,1,1306.0
19,stroop_drewbeatty,.50,key,blue,green,incongruent,upright,g,1,870.0
20,stroop_drewbeatty,.50,key,orange,orange,congruent,upright,o,1,813.0
21,stroop_drewbeatty,.50,key,green,green,congruent,upright,g,1,668.0
22,stroop_drewbeatty,.50,key,orange,orange,congruent,upright,o,1,804.0
23,stroop_drewbeatty,.50,key,blue,red,incongruent,upside_down,r,1,872.0
24,stroop_drewbeatty,.50,key,yellow,green,incongruent,upside_down,g,1,895.0
25,stroop_drewbeatty,.50,key,green,green,congruent,upside_down,g,1,480.0
26,stroop_drewbeatty,.50,key,yellow,orange,incongruent,upside_down,o,1,991.0
27,stroop_drewbeatty,.50,key,red,yellow,incongruent,upside_down,y,1,921.0
28,stroop_drewbeatty,.50,key,green,green,congruent,upside_down,g,1,755.0
29,stroop_drewbeatty,.50,key,blue,blue,congruent,upside_down,b,1,898.0
30,stroop_drewbeatty,.50,key,blue,orange,incongruent,upside_down,o,1,1492.0
31,stroop_drewbeatty,.50,key,orange,red,incongruent,upside_down,r,1,1233.0
32,stroop_drewbeatty,.50,key,blue,blue,congruent,upside_down,b,1,1116.0
33,stroop_drewbeatty,.50,key,blue,blue,congruent,upright,b,1,449.0
34,stroop_drewbeatty,.50,key,yellow,orange,incongruent,upside_down,y,0,788.0
35,stroop_drewbeatty,.50,key,red,blue,incongruent,upside_down,b,1,1397.0
36,stroop_drewbeatty,.50,key,blue,orange,incongruent,upright,o,1,1127.0
37,stroop_drewbeatty,.50,key,yellow,red,incongruent,upright,r,1,890.0
38,stroop_drewbeatty,.50,key,orange,orange,congruent,upright,o,1,816.0
39,stroop_drewbeatty,.50,key,yellow,red,incongruent,upside_down,r,1,1416.0
40,stroop_drewbeatty,.50,key,orange,orange,congruent,upright,o,1,818.0
41,stroop_drewbeatty,.50,key,yellow,yellow,congruent,upright,y,1,988.0
42,stroop_drewbeatty,.50,key,red,red,congruent,upside_down,r,1,731.0
43,stroop_drewbeatty,.50,key,green,green,congruent,upright,g,1,772.0
44,stroop_drewbeatty,.50,key,blue,blue,congruent,upright,b,1,719.0
45,stroop_drewbeatty,.50,key,blue,blue,congruent,upright,b,1,396.0
46,stroop_drewbeatty,.50,key,green,green,congruent,upside_down,g,1,769.0
47,stroop_drewbeatty,.50,key,red,red,congruent,upright,r,1,686.0
48,stroop_drewbeatty,.50,key,blue,orange,incongruent,upside_down,o,1,1495.0
49,stroop_drewbeatty,.50,key,blue,blue,congruent,upright,b,1,659.0
50,stroop_drewbeatty,.50,key,orange,orange,congruent,upside_down,o,1,780.0
51,stroop_drewbeatty,.50,key,yellow,blue,incongruent,upright,b,1,957.0
52,stroop_drewbeatty,.50,key,green,red,incongruent,upside_down,r,1,1042.0
53,stroop_drewbeatty,.50,key,yellow,blue,incongruent,upright,b,1,1040.0
54,stroop_drewbeatty,.50,key,blue,blue,congruent,upside_down,b,1,663.0
55,stroop_drewbeatty,.50,key,yellow,yellow,congruent,upright,y,1,692.0
56,stroop_drewbeatty,.50,key,green,red,incongruent,upright,r,1,939.0
57,stroop_drewbeatty,.50,key,yellow,yellow,congruent,upright,y,1,819.0
58,stroop_drewbeatty,.50,key,green,blue,incongruent,upside_down,b,1,1276.0
59,stroop_drewbeatty,.50,key,blue,blue,congruent,upside_down,b,1,660.0
60,stroop_drewbeatty,.50,key,red,yellow,incongruent,upside_down,y,1,1145.0
61,stroop_drewbeatty,.50,key,green,green,congruent,upright,g,1,776.0
62,stroop_drewbeatty,.50,key,orange,orange,congruent,upside_down,o,1,1170.0
63,stroop_drewbeatty,.50,key,green,green,congruent,upside_down,g,1,829.0
64,stroop_drewbeatty,.50,key,yellow,orange,incongruent,upright,o,1,1003.0
65,stroop_drewbeatty,.50,key,yellow,orange,incongruent,upside_down,o,1,727.0
66,stroop_drewbeatty,.50,key,red,orange,incongruent,upright,o,1,1253.0
67,stroop_drewbeatty,.50,key,green,green,congruent,upright,g,1,681.0
68,stroop_drewbeatty,.50,key,red,red,congruent,upside_down,r,1,767.0
69,stroop_drewbeatty,.50,key,green,blue,incongruent,upright,b,1,1091.0
70,stroop_drewbeatty,.50,key,red,blue,incongruent,upright,b,1,1260.0
71,stroop_drewbeatty,.50,key,red,red,congruent,upright,r,1,832.0
72,stroop_drewbeatty,.50,key,green,yellow,incongruent,upright,y,1,1657.0
73,stroop_drewbeatty,.50,key,yellow,orange,incongruent,upright,o,1,1045.0
74,stroop_drewbeatty,.50,key,blue,green,incongruent,upside_down,g,1,1096.0
75,stroop_drewbeatty,.50,key,orange,orange,congruent,upside_down,o,1,766.0
76,stroop_drewbeatty,.50,key,yellow,green,incongruent,upright,g,1,916.0
77,stroop_drewbeatty,.50,key,green,green,congruent,upside_down,g,1,654.0
78,stroop_drewbeatty,.50,key,red,green,incongruent,upside_down,g,1,997.0
79,stroop_drewbeatty,.50,key,red,yellow,incongruent,upright,y,1,903.0
80,stroop_drewbeatty,.50,key,orange,orange,congruent,upside_down,o,1,823.0
81,stroop_drewbeatty,.50,key,blue,blue,congruent,upright,b,1,957.0
82,stroop_drewbeatty,.50,key,blue,blue,congruent,upside_down,b,1,417.0
83,stroop_drewbeatty,.50,key,red,yellow,incongruent,upside_down,y,1,873.0
84,stroop_drewbeatty,.50,key,red,green,incongruent,upside_down,g,1,872.0
85,stroop_drewbeatty,.50,key,red,red,congruent,upright,r,1,663.0
86,stroop_drewbeatty,.50,key,orange,blue,incongruent,upright,b,1,1315.0
87,stroop_drewbeatty,.50,key,yellow,yellow,congruent,upside_down,y,1,737.0
88,stroop_drewbeatty,.50,key,orange,blue,incongruent,upright,b,1,1255.0
89,stroop_drewbeatty,.50,key,yellow,yellow,congruent,upside_down,y,1,690.0
90,stroop_drewbeatty,.50,key,orange,orange,congruent,upside_down,o,1,815.0
91,stroop_drewbeatty,.50,key,red,green,incongruent,upright,g,1,1135.0
92,stroop_drewbeatty,.50,key,orange,blue,incongruent,upside_down,b,1,1185.0
93,stroop_drewbeatty,.50,key,orange,orange,congruent,upside_down,o,1,934.0
94,stroop_drewbeatty,.50,key,green,green,congruent,upside_down,g,1,711.0
95,stroop_drewbeatty,.50,key,red,orange,incongruent,upright,o,1,1050.0
96,stroop_drewbeatty,.50,key,yellow,red,incongruent,upright,r,1,1004.0
97,stroop_drewbeatty,.50,key,blue,green,incongruent,upright,b,0,1893.0
98,stroop_drewbeatty,.50,key,orange,red,incongruent,upright,r,1,1040.0
99,stroop_drewbeatty,.50,key,green,orange,incongruent,upright,o,1,1783.0
100,stroop_drewbeatty,.50,key,green,green,congruent,upside_down,g,1,939.0
1,stroop_ezgimelisa,.50,key,green,green,congruent,upside_down,g,1,723.0
2,stroop_ezgimelisa,.50,key,yellow,blue,incongruent,upright,b,1,971.0
3,stroop_ezgimelisa,.50,key,blue,green,incongruent,upside_down,g,1,978.0
4,stroop_ezgimelisa,.50,key,yellow,yellow,congruent,upside_down,y,1,834.0
5,stroop_ezgimelisa,.50,key,blue,blue,congruent,upright,b,1,694.0
6,stroop_ezgimelisa,.50,key,blue,yellow,incongruent,upright,y,1,767.0
7,stroop_ezgimelisa,.50,key,blue,yellow,incongruent,upside_down,y,1,623.0
8,stroop_ezgimelisa,.50,key,green,green,congruent,upside_down,g,1,624.0
9,stroop_ezgimelisa,.50,key,orange,red,incongruent,upside_down,r,1,1011.0
10,stroop_ezgimelisa,.50,key,yellow,yellow,congruent,upright,y,1,593.0
11,stroop_ezgimelisa,.50,key,yellow,yellow,congruent,upright,y,1,610.0
12,stroop_ezgimelisa,.50,key,red,blue,incongruent,upright,b,1,764.0
13,stroop_ezgimelisa,.50,key,red,orange,incongruent,upright,o,1,1613.0
14,stroop_ezgimelisa,.50,key,red,green,incongruent,upside_down,g,1,769.0
15,stroop_ezgimelisa,.50,key,orange,orange,congruent,upright,o,1,533.0
16,stroop_ezgimelisa,.50,key,green,green,congruent,upright,g,1,468.0
17,stroop_ezgimelisa,.50,key,orange,orange,congruent,upright,o,1,775.0
18,stroop_ezgimelisa,.50,key,red,red,congruent,upside_down,r,1,767.0
19,stroop_ezgimelisa,.50,key,red,blue,incongruent,upside_down,b,1,874.0
20,stroop_ezgimelisa,.50,key,yellow,green,incongruent,upside_down,g,1,625.0
21,stroop_ezgimelisa,.50,key,yellow,blue,incongruent,upright,b,1,877.0
22,stroop_ezgimelisa,.50,key,green,green,congruent,upright,g,1,551.0
23,stroop_ezgimelisa,.50,key,green,green,congruent,upright,g,1,429.0
24,stroop_ezgimelisa,.50,key,orange,orange,congruent,upright,o,1,495.0
25,stroop_ezgimelisa,.50,key,blue,orange,incongruent,upright,o,1,418.0
26,stroop_ezgimelisa,.50,key,green,green,congruent,upside_down,g,1,472.0
27,stroop_ezgimelisa,.50,key,orange,orange,congruent,upside_down,g,0,525.0
28,stroop_ezgimelisa,.50,key,orange,orange,congruent,upside_down,o,1,723.0
29,stroop_ezgimelisa,.50,key,orange,red,incongruent,upside_down,r,1,593.0
30,stroop_ezgimelisa,.50,key,green,yellow,incongruent,upside_down,y,1,1211.0
31,stroop_ezgimelisa,.50,key,blue,blue,congruent,upright,b,1,614.0
32,stroop_ezgimelisa,.50,key,blue,blue,congruent,upright,b,1,601.0
33,stroop_ezgimelisa,.50,key,orange,orange,congruent,upside_down,o,1,561.0
34,stroop_ezgimelisa,.50,key,red,red,congruent,upright,r,1,595.0
35,stroop_ezgimelisa,.50,key,blue,blue,congruent,upside_down,b,1,552.0
36,stroop_ezgimelisa,.50,key,orange,blue,incongruent,upside_down,b,1,716.0
37,stroop_ezgimelisa,.50,key,blue,blue,congruent,upside_down,b,1,543.0
38,stroop_ezgimelisa,.50,key,red,orange,incongruent,upside_down,o,1,965.0
39,stroop_ezgimelisa,.50,key,orange,yellow,incongruent,upright,y,1,788.0
40,stroop_ezgimelisa,.50,key,yellow,orange,incongruent,upside_down,o,1,761.0
41,stroop_ezgimelisa,.50,key,blue,blue,congruent,upright,b,1,644.0
42,stroop_ezgimelisa,.50,key,orange,yellow,incongruent,upside_down,y,1,740.0
43,stroop_ezgimelisa,.50,key,yellow,blue,incongruent,upright,b,1,1150.0
44,stroop_ezgimelisa,.50,key,yellow,red,incongruent,upright,r,1,1240.0
45,stroop_ezgimelisa,.50,key,orange,orange,congruent,upside_down,o,1,1879.0
46,stroop_ezgimelisa,.50,key,red,blue,incongruent,upside_down,r,0,662.0
47,stroop_ezgimelisa,.50,key,orange,orange,congruent,upright,o,1,678.0
48,stroop_ezgimelisa,.50,key,yellow,yellow,congruent,upright,y,1,581.0
49,stroop_ezgimelisa,.50,key,green,orange,incongruent,upright,o,1,1465.0
50,stroop_ezgimelisa,.50,key,yellow,orange,incongruent,upright,o,1,409.0
51,stroop_ezgimelisa,.50,key,yellow,blue,incongruent,upside_down,b,1,795.0
52,stroop_ezgimelisa,.50,key,red,red,congruent,upside_down,r,1,531.0
53,stroop_ezgimelisa,.50,key,blue,blue,congruent,upright,r,0,476.0
54,stroop_ezgimelisa,.50,key,yellow,red,incongruent,upright,r,1,562.0
55,stroop_ezgimelisa,.50,key,blue,green,incongruent,upside_down,g,1,914.0
56,stroop_ezgimelisa,.50,key,yellow,red,incongruent,upside_down,r,1,776.0
57,stroop_ezgimelisa,.50,key,blue,red,incongruent,upside_down,r,1,1850.0
58,stroop_ezgimelisa,.50,key,green,red,incongruent,upside_down,r,1,421.0
59,stroop_ezgimelisa,.50,key,orange,red,incongruent,upside_down,r,1,336.0
60,stroop_ezgimelisa,.50,key,blue,red,incongruent,upside_down,r,1,339.0
61,stroop_ezgimelisa,.50,key,green,yellow,incongruent,upright,o,0,617.0
62,stroop_ezgimelisa,.50,key,red,blue,incongruent,upright,b,1,1015.0
63,stroop_ezgimelisa,.50,key,orange,yellow,incongruent,upside_down,y,1,1286.0
64,stroop_ezgimelisa,.50,key,blue,red,incongruent,upright,r,1,1602.0
65,stroop_ezgimelisa,.50,key,blue,blue,congruent,upside_down,b,1,582.0
66,stroop_ezgimelisa,.50,key,yellow,green,incongruent,upside_down,g,1,784.0
67,stroop_ezgimelisa,.50,key,orange,orange,congruent,upside_down,o,1,502.0
68,stroop_ezgimelisa,.50,key,yellow,yellow,congruent,upright,y,1,362.0
69,stroop_ezgimelisa,.50,key,orange,orange,congruent,upside_down,o,1,480.0
70,stroop_ezgimelisa,.50,key,blue,blue,congruent,upside_down,b,1,583.0
71,stroop_ezgimelisa,.50,key,yellow,blue,incongruent,upside_down,b,1,757.0
72,stroop_ezgimelisa,.50,key,green,yellow,incongruent,upright,y,1,647.0
73,stroop_ezgimelisa,.50,key,yellow,orange,incongruent,upside_down,o,1,1067.0
74,stroop_ezgimelisa,.50,key,red,green,incongruent,upside_down,g,1,905.0
75,stroop_ezgimelisa,.50,key,orange,orange,congruent,upright,o,1,582.0
76,stroop_ezgimelisa,.50,key,red,red,congruent,upright,r,1,563.0
77,stroop_ezgimelisa,.50,key,red,orange,incongruent,upright,b,0,888.0
78,stroop_ezgimelisa,.50,key,orange,orange,congruent,upside_down,o,1,651.0
79,stroop_ezgimelisa,.50,key,orange,blue,incongruent,upside_down,b,1,675.0
80,stroop_ezgimelisa,.50,key,red,red,congruent,upside_down,r,1,521.0
81,stroop_ezgimelisa,.50,key,orange,orange,congruent,upside_down,o,1,995.0
82,stroop_ezgimelisa,.50,key,green,green,congruent,upright,g,1,625.0
83,stroop_ezgimelisa,.50,key,yellow,yellow,congruent,upside_down,y,1,537.0
84,stroop_ezgimelisa,.50,key,green,green,congruent,upside_down,g,1,612.0
85,stroop_ezgimelisa,.50,key,yellow,yellow,congruent,upside_down,y,1,522.0
86,stroop_ezgimelisa,.50,key,red,orange,incongruent,upright,r,0,503.0
87,stroop_ezgimelisa,.50,key,red,red,congruent,upright,r,1,529.0
88,stroop_ezgimelisa,.50,key,yellow,yellow,congruent,upright,y,1,540.0
89,stroop_ezgimelisa,.50,key,yellow,yellow,congruent,upside_down,y,1,379.0
90,stroop_ezgimelisa,.50,key,red,orange,incongruent,upright,o,1,1359.0
91,stroop_ezgimelisa,.50,key,orange,blue,incongruent,upright,b,1,811.0
92,stroop_ezgimelisa,.50,key,red,red,congruent,upright,r,1,644.0
93,stroop_ezgimelisa,.50,key,red,red,congruent,upright,r,1,412.0
94,stroop_ezgimelisa,.50,key,green,yellow,incongruent,upright,o,0,730.0
95,stroop_ezgimelisa,.50,key,red,blue,incongruent,upright,r,0,623.0
96,stroop_ezgimelisa,.50,key,green,red,incongruent,upright,r,1,790.0
97,stroop_ezgimelisa,.50,key,yellow,yellow,congruent,upright,y,1,542.0
98,stroop_ezgimelisa,.50,key,yellow,yellow,congruent,upright,y,1,393.0
99,stroop_ezgimelisa,.50,key,green,green,congruent,upright,g,1,513.0
100,stroop_ezgimelisa,.50,key,blue,green,incongruent,upside_down,g,1,438.0
1,stroop_jacobike,.25,key,green,green,congruent,upside_down,g,1,809.0
2,stroop_jacobike,.25,key,orange,orange,congruent,upright,o,1,763.0
3,stroop_jacobike,.25,key,yellow,yellow,congruent,upside_down,y,1,754.0
4,stroop_jacobike,.25,key,green,green,congruent,upright,g,1,616.0
5,stroop_jacobike,.25,key,blue,yellow,incongruent,upside_down,b,0,866.0
6,stroop_jacobike,.25,key,red,red,congruent,upside_down,r,1,786.0
7,stroop_jacobike,.25,key,red,red,congruent,upside_down,r,1,722.0
8,stroop_jacobike,.25,key,red,red,congruent,upside_down,r,1,675.0
9,stroop_jacobike,.25,key,green,green,congruent,upright,g,1,957.0
10,stroop_jacobike,.25,key,yellow,yellow,congruent,upright,y,1,582.0
11,stroop_jacobike,.25,key,orange,orange,congruent,upside_down,o,1,682.0
12,stroop_jacobike,.25,key,yellow,yellow,congruent,upside_down,y,1,661.0
13,stroop_jacobike,.25,key,yellow,red,incongruent,upright,r,1,1096.0
14,stroop_jacobike,.25,key,red,red,congruent,upside_down,r,1,782.0
15,stroop_jacobike,.25,key,orange,orange,congruent,upside_down,o,1,760.0
16,stroop_jacobike,.25,key,blue,blue,congruent,upside_down,b,1,649.0
17,stroop_jacobike,.25,key,red,red,congruent,upside_down,r,1,761.0
18,stroop_jacobike,.25,key,yellow,red,incongruent,upside_down,y,0,736.0
19,stroop_jacobike,.25,key,orange,orange,congruent,upright,o,1,709.0
20,stroop_jacobike,.25,key,red,red,congruent,upright,r,1,710.0
21,stroop_jacobike,.25,key,blue,yellow,incongruent,upside_down,y,1,1060.0
22,stroop_jacobike,.25,key,red,red,congruent,upright,r,1,718.0
23,stroop_jacobike,.25,key,red,red,congruent,upright,r,1,970.0
24,stroop_jacobike,.25,key,green,green,congruent,upright,g,1,642.0
25,stroop_jacobike,.25,key,blue,blue,congruent,upside_down,b,1,815.0
26,stroop_jacobike,.25,key,blue,blue,congruent,upside_down,b,1,577.0
27,stroop_jacobike,.25,key,orange,blue,incongruent,upright,b,1,1239.0
28,stroop_jacobike,.25,key,orange,orange,congruent,upside_down,o,1,738.0
29,stroop_jacobike,.25,key,blue,blue,congruent,upright,b,1,818.0
30,stroop_jacobike,.25,key,yellow,yellow,congruent,upside_down,y,1,693.0
31,stroop_jacobike,.25,key,red,yellow,incongruent,upright,y,1,832.0
32,stroop_jacobike,.25,key,orange,orange,congruent,upright,o,1,720.0
33,stroop_jacobike,.25,key,orange,orange,congruent,upright,o,1,692.0
34,stroop_jacobike,.25,key,green,green,congruent,upside_down,g,1,702.0
35,stroop_jacobike,.25,key,blue,blue,congruent,upright,b,1,671.0
36,stroop_jacobike,.25,key,green,green,congruent,upright,g,1,635.0
37,stroop_jacobike,.25,key,green,green,congruent,upright,g,1,580.0
38,stroop_jacobike,.25,key,blue,blue,congruent,upside_down,b,1,604.0
39,stroop_jacobike,.25,key,blue,orange,incongruent,upside_down,o,1,1332.0
40,stroop_jacobike,.25,key,green,red,incongruent,upright,r,1,1079.0
41,stroop_jacobike,.25,key,orange,red,incongruent,upside_down,r,1,1155.0
42,stroop_jacobike,.25,key,green,green,congruent,upside_down,g,1,677.0
43,stroop_jacobike,.25,key,orange,orange,congruent,upright,o,1,707.0
44,stroop_jacobike,.25,key,green,green,congruent,upright,g,1,622.0
45,stroop_jacobike,.25,key,orange,orange,congruent,upside_down,o,1,797.0
46,stroop_jacobike,.25,key,red,red,congruent,upside_down,r,1,717.0
47,stroop_jacobike,.25,key,yellow,yellow,congruent,upside_down,y,1,681.0
48,stroop_jacobike,.25,key,yellow,blue,incongruent,upside_down,b,1,778.0
49,stroop_jacobike,.25,key,blue,blue,congruent,upside_down,b,1,680.0
50,stroop_jacobike,.25,key,red,red,congruent,upside_down,r,1,641.0
51,stroop_jacobike,.25,key,yellow,yellow,congruent,upside_down,y,1,654.0
52,stroop_jacobike,.25,key,blue,blue,congruent,upside_down,b,1,562.0
53,stroop_jacobike,.25,key,yellow,green,incongruent,upright,g,1,1004.0
54,stroop_jacobike,.25,key,orange,orange,congruent,upside_down,o,1,660.0
55,stroop_jacobike,.25,key,blue,blue,congruent,upright,b,1,565.0
56,stroop_jacobike,.25,key,yellow,red,incongruent,upside_down,r,1,965.0
57,stroop_jacobike,.25,key,red,red,congruent,upright,r,1,678.0
58,stroop_jacobike,.25,key,green,green,congruent,upright,g,1,606.0
59,stroop_jacobike,.25,key,green,green,congruent,upside_down,g,1,850.0
60,stroop_jacobike,.25,key,blue,red,incongruent,upright,r,1,952.0
61,stroop_jacobike,.25,key,blue,blue,congruent,upright,b,1,683.0
62,stroop_jacobike,.25,key,green,green,congruent,upright,g,1,614.0
63,stroop_jacobike,.25,key,yellow,yellow,congruent,upside_down,y,1,626.0
64,stroop_jacobike,.25,key,red,orange,incongruent,upside_down,o,1,1048.0
65,stroop_jacobike,.25,key,green,green,congruent,upside_down,g,1,633.0
66,stroop_jacobike,.25,key,yellow,yellow,congruent,upright,y,1,592.0
67,stroop_jacobike,.25,key,green,green,congruent,upside_down,g,1,566.0
68,stroop_jacobike,.25,key,yellow,yellow,congruent,upside_down,y,1,586.0
69,stroop_jacobike,.25,key,green,green,congruent,upside_down,g,1,564.0
70,stroop_jacobike,.25,key,orange,orange,congruent,upright,o,1,542.0
71,stroop_jacobike,.25,key,blue,orange,incongruent,upright,o,1,1029.0
72,stroop_jacobike,.25,key,yellow,yellow,congruent,upright,y,1,650.0
73,stroop_jacobike,.25,key,orange,orange,congruent,upright,o,1,544.0
74,stroop_jacobike,.25,key,orange,orange,congruent,upside_down,o,1,623.0
75,stroop_jacobike,.25,key,green,green,congruent,upright,g,1,591.0
76,stroop_jacobike,.25,key,red,red,congruent,upright,r,1,684.0
77,stroop_jacobike,.25,key,yellow,yellow,congruent,upside_down,y,1,706.0
78,stroop_jacobike,.25,key,red,yellow,incongruent,upright,r,0,658.0
79,stroop_jacobike,.25,key,yellow,yellow,congruent,upside_down,y,1,720.0
80,stroop_jacobike,.25,key,green,yellow,incongruent,upside_down,y,1,1051.0
81,stroop_jacobike,.25,key,blue,orange,incongruent,upright,o,1,781.0
82,stroop_jacobike,.25,key,blue,blue,congruent,upright,b,1,606.0
83,stroop_jacobike,.25,key,red,red,congruent,upright,r,1,685.0
84,stroop_jacobike,.25,key,orange,orange,congruent,upright,o,1,539.0
85,stroop_jacobike,.25,key,yellow,red,incongruent,upright,r,1,1139.0
86,stroop_jacobike,.25,key,yellow,yellow,congruent,upside_down,y,1,668.0
87,stroop_jacobike,.25,key,red,red,congruent,upside_down,r,1,660.0
88,stroop_jacobike,.25,key,yellow,blue,incongruent,upside_down,b,1,933.0
89,stroop_jacobike,.25,key,orange,blue,incongruent,upright,b,1,1525.0
90,stroop_jacobike,.25,key,blue,green,incongruent,upright,g,1,995.0
91,stroop_jacobike,.25,key,red,red,congruent,upside_down,r,1,719.0
92,stroop_jacobike,.25,key,blue,blue,congruent,upright,b,1,589.0
93,stroop_jacobike,.25,key,blue,blue,congruent,upright,b,1,592.0
94,stroop_jacobike,.25,key,blue,red,incongruent,upright,r,1,835.0
95,stroop_jacobike,.25,key,yellow,yellow,congruent,upside_down,y,1,612.0
96,stroop_jacobike,.25,key,green,green,congruent,upright,g,1,578.0
97,stroop_jacobike,.25,key,orange,orange,congruent,upright,o,1,534.0
98,stroop_jacobike,.25,key,orange,yellow,incongruent,upright,y,1,778.0
99,stroop_jacobike,.25,key,blue,red,incongruent,upright,r,1,791.0
100,stroop_jacobike,.25,key,orange,orange,congruent,upside_down,o,1,544.0
1,stroop_leanthony2,.50,key,red,red,congruent,upside_down,r,1,1363.0
2,stroop_leanthony2,.50,key,yellow,yellow,congruent,upright,y,1,898.0
3,stroop_leanthony2,.50,key,green,red,incongruent,upright,r,1,938.0
4,stroop_leanthony2,.50,key,blue,blue,congruent,upright,b,1,661.0
5,stroop_leanthony2,.50,key,orange,orange,congruent,upright,o,1,586.0
6,stroop_leanthony2,.50,key,orange,red,incongruent,upright,r,1,772.0
7,stroop_leanthony2,.50,key,red,red,congruent,upside_down,r,1,754.0
8,stroop_leanthony2,.50,key,green,green,congruent,upside_down,g,1,636.0
9,stroop_leanthony2,.50,key,green,red,incongruent,upright,r,1,746.0
10,stroop_leanthony2,.50,key,green,green,congruent,upside_down,g,1,675.0
11,stroop_leanthony2,.50,key,red,yellow,incongruent,upright,y,1,845.0
12,stroop_leanthony2,.50,key,yellow,green,incongruent,upside_down,g,1,878.0
13,stroop_leanthony2,.50,key,orange,blue,incongruent,upright,b,1,926.0
14,stroop_leanthony2,.50,key,orange,orange,congruent,upside_down,o,1,549.0
15,stroop_leanthony2,.50,key,blue,yellow,incongruent,upside_down,y,1,915.0
16,stroop_leanthony2,.50,key,orange,orange,congruent,upright,o,1,622.0
17,stroop_leanthony2,.50,key,green,yellow,incongruent,upside_down,y,1,891.0
18,stroop_leanthony2,.50,key,yellow,orange,incongruent,upright,o,1,703.0
19,stroop_leanthony2,.50,key,blue,blue,congruent,upright,b,1,609.0
20,stroop_leanthony2,.50,key,red,yellow,incongruent,upright,y,1,686.0
21,stroop_leanthony2,.50,key,red,yellow,incongruent,upside_down,y,1,780.0
22,stroop_leanthony2,.50,key,blue,blue,congruent,upside_down,b,1,589.0
23,stroop_leanthony2,.50,key,orange,orange,congruent,upright,o,1,598.0
24,stroop_leanthony2,.50,key,red,orange,incongruent,upright,o,1,707.0
25,stroop_leanthony2,.50,key,blue,green,incongruent,upside_down,g,1,911.0
26,stroop_leanthony2,.50,key,green,red,incongruent,upright,r,1,793.0
27,stroop_leanthony2,.50,key,orange,green,incongruent,upside_down,g,1,839.0
28,stroop_leanthony2,.50,key,orange,green,incongruent,upside_down,g,1,572.0
29,stroop_leanthony2,.50,key,blue,blue,congruent,upside_down,b,1,564.0
30,stroop_leanthony2,.50,key,red,red,congruent,upright,r,1,796.0
31,stroop_leanthony2,.50,key,orange,red,incongruent,upside_down,r,1,673.0
32,stroop_leanthony2,.50,key,orange,orange,congruent,upside_down,o,1,665.0
33,stroop_leanthony2,.50,key,yellow,yellow,congruent,upright,y,1,812.0
34,stroop_leanthony2,.50,key,yellow,orange,incongruent,upright,o,1,1012.0
35,stroop_leanthony2,.50,key,green,blue,incongruent,upside_down,b,1,845.0
36,stroop_leanthony2,.50,key,green,green,congruent,upside_down,g,1,778.0
37,stroop_leanthony2,.50,key,green,green,congruent,upside_down,g,1,652.0
38,stroop_leanthony2,.50,key,green,yellow,incongruent,upright,y,1,747.0
39,stroop_leanthony2,.50,key,blue,yellow,incongruent,upside_down,y,1,727.0
40,stroop_leanthony2,.50,key,green,blue,incongruent,upside_down,b,1,787.0
41,stroop_leanthony2,.50,key,blue,green,incongruent,upside_down,g,1,795.0
42,stroop_leanthony2,.50,key,blue,green,incongruent,upright,g,1,679.0
43,stroop_leanthony2,.50,key,orange,red,incongruent,upright,r,1,728.0
44,stroop_leanthony2,.50,key,red,green,incongruent,upright,g,1,705.0
45,stroop_leanthony2,.50,key,yellow,green,incongruent,upside_down,g,1,546.0
46,stroop_leanthony2,.50,key,orange,green,incongruent,upright,g,1,485.0
47,stroop_leanthony2,.50,key,red,blue,incongruent,upside_down,b,1,719.0
48,stroop_leanthony2,.50,key,yellow,yellow,congruent,upside_down,y,1,975.0
49,stroop_leanthony2,.50,key,green,yellow,incongruent,upside_down,y,1,591.0
50,stroop_leanthony2,.50,key,red,red,congruent,upside_down,r,1,727.0
51,stroop_leanthony2,.50,key,blue,blue,congruent,upside_down,b,1,600.0
52,stroop_leanthony2,.50,key,red,orange,incongruent,upside_down,o,1,609.0
53,stroop_leanthony2,.50,key,green,green,congruent,upside_down,g,1,596.0
54,stroop_leanthony2,.50,key,red,blue,incongruent,upright,b,1,696.0
55,stroop_leanthony2,.50,key,orange,orange,congruent,upside_down,o,1,526.0
56,stroop_leanthony2,.50,key,green,green,congruent,upside_down,g,1,562.0
57,stroop_leanthony2,.50,key,green,green,congruent,upright,g,1,515.0
58,stroop_leanthony2,.50,key,green,green,congruent,upside_down,g,1,559.0
59,stroop_leanthony2,.50,key,orange,orange,congruent,upright,o,1,606.0
60,stroop_leanthony2,.50,key,blue,red,incongruent,upright,r,1,793.0
61,stroop_leanthony2,.50,key,blue,yellow,incongruent,upside_down,y,1,819.0
62,stroop_leanthony2,.50,key,orange,blue,incongruent,upright,b,1,703.0
63,stroop_leanthony2,.50,key,blue,blue,congruent,upright,b,1,511.0
64,stroop_leanthony2,.50,key,orange,orange,congruent,upright,o,1,448.0
65,stroop_leanthony2,.50,key,blue,blue,congruent,upside_down,b,1,561.0
66,stroop_leanthony2,.50,key,yellow,orange,incongruent,upright,o,1,682.0
67,stroop_leanthony2,.50,key,green,green,congruent,upright,g,1,557.0
68,stroop_leanthony2,.50,key,blue,blue,congruent,upside_down,b,1,616.0
69,stroop_leanthony2,.50,key,red,green,incongruent,upright,g,1,1057.0
70,stroop_leanthony2,.50,key,red,red,congruent,upright,r,1,760.0
71,stroop_leanthony2,.50,key,orange,orange,congruent,upright,o,1,583.0
72,stroop_leanthony2,.50,key,blue,blue,congruent,upright,b,1,559.0
73,stroop_leanthony2,.50,key,blue,orange,incongruent,upside_down,o,1,732.0
74,stroop_leanthony2,.50,key,blue,red,incongruent,upright,r,1,738.0
75,stroop_leanthony2,.50,key,red,red,congruent,upright,r,1,604.0
76,stroop_leanthony2,.50,key,yellow,yellow,congruent,upside_down,y,1,718.0
77,stroop_leanthony2,.50,key,red,red,congruent,upside_down,r,1,692.0
78,stroop_leanthony2,.50,key,blue,red,incongruent,upright,r,1,659.0
79,stroop_leanthony2,.50,key,blue,green,incongruent,upside_down,g,1,864.0
80,stroop_leanthony2,.50,key,yellow,yellow,congruent,upside_down,y,1,730.0
81,stroop_leanthony2,.50,key,red,red,congruent,upright,r,1,596.0
82,stroop_leanthony2,.50,key,green,green,congruent,upright,g,1,544.0
83,stroop_leanthony2,.50,key,yellow,yellow,congruent,upside_down,y,1,690.0
84,stroop_leanthony2,.50,key,blue,yellow,incongruent,upside_down,y,1,746.0
85,stroop_leanthony2,.50,key,yellow,blue,incongruent,upright,b,1,732.0
86,stroop_leanthony2,.50,key,yellow,blue,incongruent,upright,b,1,692.0
87,stroop_leanthony2,.50,key,green,green,congruent,upright,g,1,561.0
88,stroop_leanthony2,.50,key,yellow,blue,incongruent,upright,b,1,835.0
89,stroop_leanthony2,.50,key,red,red,congruent,upright,r,1,679.0
90,stroop_leanthony2,.50,key,yellow,blue,incongruent,upside_down,b,1,807.0
91,stroop_leanthony2,.50,key,blue,red,incongruent,upright,r,1,762.0
92,stroop_leanthony2,.50,key,green,green,congruent,upside_down,g,1,534.0
93,stroop_leanthony2,.50,key,blue,red,incongruent,upside_down,r,1,771.0
94,stroop_leanthony2,.50,key,red,blue,incongruent,upright,b,1,677.0
95,stroop_leanthony2,.50,key,orange,orange,congruent,upside_down,o,1,584.0
96,stroop_leanthony2,.50,key,yellow,yellow,congruent,upside_down,y,1,674.0
97,stroop_leanthony2,.50,key,blue,blue,congruent,upside_down,b,1,698.0
98,stroop_leanthony2,.50,key,green,green,congruent,upright,g,1,701.0
99,stroop_leanthony2,.50,key,yellow,orange,incongruent,upright,o,1,708.0
100,stroop_leanthony2,.50,key,blue,blue,congruent,upside_down,b,1,605.0
1,stroop_lmodahl,.25,key,red,red,congruent,upright,r,1,466.0
2,stroop_lmodahl,.25,key,orange,orange,congruent,upside_down,o,1,564.0
3,stroop_lmodahl,.25,key,orange,orange,congruent,upside_down,o,1,461.0
4,stroop_lmodahl,.25,key,blue,red,incongruent,upside_down,r,1,664.0
5,stroop_lmodahl,.25,key,yellow,yellow,congruent,upright,y,1,590.0
6,stroop_lmodahl,.25,key,green,green,congruent,upright,g,1,617.0
7,stroop_lmodahl,.25,key,blue,orange,incongruent,upright,o,1,874.0
8,stroop_lmodahl,.25,key,orange,yellow,incongruent,upside_down,y,1,732.0
9,stroop_lmodahl,.25,key,orange,red,incongruent,upright,r,1,488.0
10,stroop_lmodahl,.25,key,yellow,orange,incongruent,upside_down,o,1,650.0
11,stroop_lmodahl,.25,key,blue,orange,incongruent,upside_down,o,1,419.0
12,stroop_lmodahl,.25,key,orange,orange,congruent,upside_down,o,1,375.0
13,stroop_lmodahl,.25,key,yellow,yellow,congruent,upright,y,1,659.0
14,stroop_lmodahl,.25,key,orange,orange,congruent,upside_down,o,1,484.0
15,stroop_lmodahl,.25,key,red,red,congruent,upright,r,1,442.0
16,stroop_lmodahl,.25,key,orange,orange,congruent,upright,o,1,344.0
17,stroop_lmodahl,.25,key,red,red,congruent,upright,o,0,367.0
18,stroop_lmodahl,.25,key,yellow,yellow,congruent,upside_down,y,1,625.0
19,stroop_lmodahl,.25,key,blue,blue,congruent,upside_down,b,1,618.0
20,stroop_lmodahl,.25,key,orange,blue,incongruent,upside_down,b,1,568.0
21,stroop_lmodahl,.25,key,orange,orange,congruent,upright,o,1,465.0
22,stroop_lmodahl,.25,key,orange,orange,congruent,upside_down,o,1,342.0
23,stroop_lmodahl,.25,key,red,yellow,incongruent,upright,y,1,773.0
24,stroop_lmodahl,.25,key,blue,blue,congruent,upright,b,1,524.0
25,stroop_lmodahl,.25,key,red,red,congruent,upside_down,r,1,539.0
26,stroop_lmodahl,.25,key,blue,red,incongruent,upside_down,r,1,652.0
27,stroop_lmodahl,.25,key,orange,orange,congruent,upside_down,o,1,544.0
28,stroop_lmodahl,.25,key,orange,green,incongruent,upright,g,1,711.0
29,stroop_lmodahl,.25,key,orange,orange,congruent,upside_down,o,1,532.0
30,stroop_lmodahl,.25,key,blue,blue,congruent,upside_down,b,1,548.0
31,stroop_lmodahl,.25,key,red,orange,incongruent,upside_down,r,0,603.0
32,stroop_lmodahl,.25,key,orange,red,incongruent,upside_down,r,1,632.0
33,stroop_lmodahl,.25,key,red,red,congruent,upside_down,r,1,451.0
34,stroop_lmodahl,.25,key,yellow,yellow,congruent,upright,y,1,594.0
35,stroop_lmodahl,.25,key,orange,blue,incongruent,upside_down,b,1,670.0
36,stroop_lmodahl,.25,key,green,green,congruent,upside_down,g,1,605.0
37,stroop_lmodahl,.25,key,red,red,congruent,upside_down,r,1,513.0
38,stroop_lmodahl,.25,key,orange,red,incongruent,upside_down,r,1,588.0
39,stroop_lmodahl,.25,key,orange,orange,congruent,upside_down,o,1,549.0
40,stroop_lmodahl,.25,key,orange,orange,congruent,upside_down,o,1,493.0
41,stroop_lmodahl,.25,key,red,red,congruent,upright,r,1,455.0
42,stroop_lmodahl,.25,key,orange,orange,congruent,upright,o,1,407.0
43,stroop_lmodahl,.25,key,orange,yellow,incongruent,upright,y,1,627.0
44,stroop_lmodahl,.25,key,red,red,congruent,upright,r,1,438.0
45,stroop_lmodahl,.25,key,green,green,congruent,upright,g,1,629.0
46,stroop_lmodahl,.25,key,yellow,yellow,congruent,upside_down,y,1,549.0
47,stroop_lmodahl,.25,key,green,green,congruent,upright,g,1,557.0
48,stroop_lmodahl,.25,key,green,green,congruent,upright,g,1,520.0
49,stroop_lmodahl,.25,key,green,green,congruent,upright,g,1,463.0
50,stroop_lmodahl,.25,key,orange,orange,congruent,upright,o,1,580.0
51,stroop_lmodahl,.25,key,green,green,congruent,upright,g,1,618.0
52,stroop_lmodahl,.25,key,yellow,yellow,congruent,upside_down,y,1,549.0
53,stroop_lmodahl,.25,key,blue,blue,congruent,upside_down,b,1,543.0
54,stroop_lmodahl,.25,key,green,green,congruent,upright,g,1,558.0
55,stroop_lmodahl,.25,key,red,orange,incongruent,upside_down,o,1,761.0
56,stroop_lmodahl,.25,key,yellow,red,incongruent,upright,r,1,686.0
57,stroop_lmodahl,.25,key,red,red,congruent,upside_down,r,1,485.0
58,stroop_lmodahl,.25,key,yellow,blue,incongruent,upright,b,1,694.0
59,stroop_lmodahl,.25,key,green,green,congruent,upside_down,g,1,585.0
60,stroop_lmodahl,.25,key,orange,orange,congruent,upright,o,1,545.0
61,stroop_lmodahl,.25,key,green,green,congruent,upright,g,1,529.0
62,stroop_lmodahl,.25,key,blue,blue,congruent,upright,b,1,530.0
63,stroop_lmodahl,.25,key,blue,blue,congruent,upright,b,1,489.0
64,stroop_lmodahl,.25,key,orange,orange,congruent,upside_down,o,1,444.0
65,stroop_lmodahl,.25,key,yellow,yellow,congruent,upside_down,y,1,625.0
66,stroop_lmodahl,.25,key,blue,blue,congruent,upright,b,1,520.0
67,stroop_lmodahl,.25,key,red,red,congruent,upside_down,r,1,504.0
68,stroop_lmodahl,.25,key,green,green,congruent,upside_down,g,1,638.0
69,stroop_lmodahl,.25,key,yellow,orange,incongruent,upside_down,o,1,815.0
70,stroop_lmodahl,.25,key,blue,blue,congruent,upside_down,b,1,552.0
71,stroop_lmodahl,.25,key,green,green,congruent,upright,g,1,536.0
72,stroop_lmodahl,.25,key,blue,red,incongruent,upright,r,1,653.0
73,stroop_lmodahl,.25,key,red,red,congruent,upright,r,1,411.0
74,stroop_lmodahl,.25,key,green,green,congruent,upright,g,1,500.0
75,stroop_lmodahl,.25,key,green,green,congruent,upside_down,g,1,458.0
76,stroop_lmodahl,.25,key,green,green,congruent,upside_down,g,1,462.0
77,stroop_lmodahl,.25,key,green,blue,incongruent,upright,b,1,656.0
78,stroop_lmodahl,.25,key,green,green,congruent,upright,g,1,458.0
79,stroop_lmodahl,.25,key,orange,green,incongruent,upright,g,1,753.0
80,stroop_lmodahl,.25,key,blue,blue,congruent,upright,b,1,560.0
81,stroop_lmodahl,.25,key,yellow,yellow,congruent,upside_down,y,1,568.0
82,stroop_lmodahl,.25,key,blue,blue,congruent,upright,b,1,549.0
83,stroop_lmodahl,.25,key,yellow,yellow,congruent,upside_down,y,1,567.0
84,stroop_lmodahl,.25,key,yellow,orange,incongruent,upright,o,1,659.0
85,stroop_lmodahl,.25,key,green,red,incongruent,upside_down,r,1,706.0
86,stroop_lmodahl,.25,key,blue,blue,congruent,upside_down,b,1,557.0
87,stroop_lmodahl,.25,key,red,red,congruent,upright,r,1,506.0
88,stroop_lmodahl,.25,key,red,red,congruent,upright,r,1,448.0
89,stroop_lmodahl,.25,key,green,green,congruent,upside_down,g,1,547.0
90,stroop_lmodahl,.25,key,orange,orange,congruent,upside_down,o,1,563.0
91,stroop_lmodahl,.25,key,orange,orange,congruent,upright,o,1,533.0
92,stroop_lmodahl,.25,key,orange,orange,congruent,upside_down,o,1,426.0
93,stroop_lmodahl,.25,key,blue,blue,congruent,upright,b,1,535.0
94,stroop_lmodahl,.25,key,yellow,yellow,congruent,upside_down,y,1,629.0
95,stroop_lmodahl,.25,key,red,red,congruent,upright,r,1,506.0
96,stroop_lmodahl,.25,key,red,red,congruent,upright,r,1,455.0
97,stroop_lmodahl,.25,key,red,red,congruent,upright,r,1,439.0
98,stroop_lmodahl,.25,key,yellow,blue,incongruent,upside_down,b,1,749.0
99,stroop_lmodahl,.25,key,yellow,yellow,congruent,upside_down,y,1,666.0
100,stroop_lmodahl,.25,key,green,green,congruent,upright,g,1,534.0
1,stroop_masmith59,.50,key,blue,blue,congruent,upside_down,b,1,626.0
2,stroop_masmith59,.50,key,red,red,congruent,upright,r,1,565.0
3,stroop_masmith59,.50,key,yellow,yellow,congruent,upright,y,1,628.0
4,stroop_masmith59,.50,key,yellow,blue,incongruent,upright,b,1,851.0
5,stroop_masmith59,.50,key,red,red,congruent,upright,r,1,505.0
6,stroop_masmith59,.50,key,green,red,incongruent,upright,g,0,571.0
7,stroop_masmith59,.50,key,green,orange,incongruent,upside_down,o,1,1161.0
8,stroop_masmith59,.50,key,yellow,yellow,congruent,upright,y,1,881.0
9,stroop_masmith59,.50,key,red,blue,incongruent,upside_down,b,1,1005.0
10,stroop_masmith59,.50,key,blue,green,incongruent,upside_down,g,1,953.0
11,stroop_masmith59,.50,key,blue,blue,congruent,upright,b,1,668.0
12,stroop_masmith59,.50,key,orange,blue,incongruent,upright,o,0,1079.0
13,stroop_masmith59,.50,key,green,blue,incongruent,upside_down,b,1,1248.0
14,stroop_masmith59,.50,key,red,red,congruent,upside_down,r,1,839.0
15,stroop_masmith59,.50,key,green,green,congruent,upright,g,1,662.0
16,stroop_masmith59,.50,key,orange,orange,congruent,upside_down,o,1,700.0
17,stroop_masmith59,.50,key,blue,blue,congruent,upright,b,1,606.0
18,stroop_masmith59,.50,key,blue,blue,congruent,upright,b,1,505.0
19,stroop_masmith59,.50,key,yellow,yellow,congruent,upside_down,y,1,755.0
20,stroop_masmith59,.50,key,orange,green,incongruent,upside_down,g,1,781.0
21,stroop_masmith59,.50,key,blue,green,incongruent,upright,g,1,728.0
22,stroop_masmith59,.50,key,yellow,yellow,congruent,upside_down,y,1,574.0
23,stroop_masmith59,.50,key,blue,blue,congruent,upside_down,b,1,604.0
24,stroop_masmith59,.50,key,green,red,incongruent,upright,r,1,868.0
25,stroop_masmith59,.50,key,yellow,yellow,congruent,upside_down,y,1,589.0
26,stroop_masmith59,.50,key,yellow,orange,incongruent,upright,o,1,771.0
27,stroop_masmith59,.50,key,green,green,congruent,upside_down,g,1,565.0
28,stroop_masmith59,.50,key,orange,orange,congruent,upright,o,1,593.0
29,stroop_masmith59,.50,key,red,blue,incongruent,upright,b,1,758.0
30,stroop_masmith59,.50,key,yellow,yellow,congruent,upside_down,y,1,611.0
31,stroop_masmith59,.50,key,yellow,yellow,congruent,upside_down,y,1,701.0
32,stroop_masmith59,.50,key,red,orange,incongruent,upright,o,1,815.0
33,stroop_masmith59,.50,key,orange,green,incongruent,upright,g,1,755.0
34,stroop_masmith59,.50,key,yellow,yellow,congruent,upright,y,1,614.0
35,stroop_masmith59,.50,key,green,red,incongruent,upside_down,r,1,716.0
36,stroop_masmith59,.50,key,orange,yellow,incongruent,upright,y,1,1025.0
37,stroop_masmith59,.50,key,green,green,congruent,upside_down,g,1,608.0
38,stroop_masmith59,.50,key,green,orange,incongruent,upright,o,1,962.0
39,stroop_masmith59,.50,key,blue,blue,congruent,upside_down,b,1,602.0
40,stroop_masmith59,.50,key,yellow,red,incongruent,upside_down,r,1,768.0
41,stroop_masmith59,.50,key,red,blue,incongruent,upright,b,1,914.0
42,stroop_masmith59,.50,key,yellow,orange,incongruent,upside_down,o,1,817.0
43,stroop_masmith59,.50,key,orange,orange,congruent,upright,o,1,733.0
44,stroop_masmith59,.50,key,green,blue,incongruent,upside_down,b,1,922.0
45,stroop_masmith59,.50,key,blue,orange,incongruent,upright,o,1,963.0
46,stroop_masmith59,.50,key,yellow,blue,incongruent,upside_down,b,1,756.0
47,stroop_masmith59,.50,key,yellow,yellow,congruent,upright,y,1,669.0
48,stroop_masmith59,.50,key,blue,green,incongruent,upside_down,g,1,830.0
49,stroop_masmith59,.50,key,red,red,congruent,upright,r,1,607.0
50,stroop_masmith59,.50,key,blue,orange,incongruent,upside_down,o,1,738.0
51,stroop_masmith59,.50,key,green,red,incongruent,upside_down,r,1,820.0
52,stroop_masmith59,.50,key,yellow,blue,incongruent,upside_down,b,1,924.0
53,stroop_masmith59,.50,key,red,red,congruent,upright,r,1,571.0
54,stroop_masmith59,.50,key,yellow,yellow,congruent,upright,y,1,799.0
55,stroop_masmith59,.50,key,blue,orange,incongruent,upside_down,o,1,826.0
56,stroop_masmith59,.50,key,yellow,green,incongruent,upside_down,g,1,708.0
57,stroop_masmith59,.50,key,blue,blue,congruent,upright,b,1,575.0
58,stroop_masmith59,.50,key,orange,orange,congruent,upside_down,o,1,509.0
59,stroop_masmith59,.50,key,green,red,incongruent,upright,r,1,684.0
60,stroop_masmith59,.50,key,blue,blue,congruent,upright,b,1,633.0
61,stroop_masmith59,.50,key,green,green,congruent,upright,g,1,613.0
62,stroop_masmith59,.50,key,green,green,congruent,upside_down,g,1,581.0
63,stroop_masmith59,.50,key,red,red,congruent,upside_down,r,1,588.0
64,stroop_masmith59,.50,key,blue,red,incongruent,upright,r,1,745.0
65,stroop_masmith59,.50,key,green,green,congruent,upside_down,g,1,663.0
66,stroop_masmith59,.50,key,orange,orange,congruent,upright,o,1,583.0
67,stroop_masmith59,.50,key,orange,red,incongruent,upside_down,r,1,759.0
68,stroop_masmith59,.50,key,orange,green,incongruent,upright,o,0,1575.0
69,stroop_masmith59,.50,key,red,blue,incongruent,upright,b,1,1149.0
70,stroop_masmith59,.50,key,green,yellow,incongruent,upright,y,1,834.0
71,stroop_masmith59,.50,key,green,green,congruent,upright,g,1,597.0
72,stroop_masmith59,.50,key,blue,yellow,incongruent,upright,y,1,958.0
73,stroop_masmith59,.50,key,orange,orange,congruent,upright,o,1,624.0
74,stroop_masmith59,.50,key,yellow,yellow,congruent,upside_down,y,1,664.0
75,stroop_masmith59,.50,key,red,green,incongruent,upside_down,g,1,815.0
76,stroop_masmith59,.50,key,orange,blue,incongruent,upright,r,0,971.0
77,stroop_masmith59,.50,key,red,red,congruent,upside_down,r,1,965.0
78,stroop_masmith59,.50,key,red,yellow,incongruent,upside_down,y,1,737.0
79,stroop_masmith59,.50,key,green,red,incongruent,upright,r,1,941.0
80,stroop_masmith59,.50,key,green,green,congruent,upside_down,g,1,786.0
81,stroop_masmith59,.50,key,orange,red,incongruent,upside_down,r,1,904.0
82,stroop_masmith59,.50,key,blue,green,incongruent,upside_down,g,1,818.0
83,stroop_masmith59,.50,key,blue,blue,congruent,upside_down,b,1,588.0
84,stroop_masmith59,.50,key,green,green,congruent,upside_down,g,1,663.0
85,stroop_masmith59,.50,key,red,orange,incongruent,upside_down,o,1,1070.0
86,stroop_masmith59,.50,key,yellow,red,incongruent,upside_down,y,0,1229.0
87,stroop_masmith59,.50,key,green,green,congruent,upside_down,g,1,652.0
88,stroop_masmith59,.50,key,orange,blue,incongruent,upside_down,b,1,1012.0
89,stroop_masmith59,.50,key,yellow,yellow,congruent,upright,y,1,666.0
90,stroop_masmith59,.50,key,yellow,orange,incongruent,upright,o,1,793.0
91,stroop_masmith59,.50,key,blue,blue,congruent,upside_down,b,1,712.0
92,stroop_masmith59,.50,key,yellow,orange,incongruent,upright,o,1,839.0
93,stroop_masmith59,.50,key,orange,orange,congruent,upright,o,1,477.0
94,stroop_masmith59,.50,key,red,red,congruent,upright,r,1,548.0
95,stroop_masmith59,.50,key,orange,blue,incongruent,upright,b,1,786.0
96,stroop_masmith59,.50,key,red,yellow,incongruent,upright,y,1,898.0
97,stroop_masmith59,.50,key,blue,blue,congruent,upside_down,b,1,644.0
98,stroop_masmith59,.50,key,blue,red,incongruent,upside_down,r,1,692.0
99,stroop_masmith59,.50,key,orange,orange,congruent,upside_down,o,1,632.0
100,stroop_masmith59,.50,key,green,green,congruent,upright,g,1,641.0
1,stroop_mfu38,.50,key,orange,yellow,incongruent,upside_down,NA,0,NA
2,stroop_mfu38,.50,key,green,red,incongruent,upside_down,r,1,1026.0
3,stroop_mfu38,.50,key,orange,orange,congruent,upright,o,1,554.0
4,stroop_mfu38,.50,key,yellow,red,incongruent,upside_down,r,1,1187.0
5,stroop_mfu38,.50,key,blue,blue,congruent,upright,b,1,726.0
6,stroop_mfu38,.50,key,green,green,congruent,upright,g,1,783.0
7,stroop_mfu38,.50,key,green,yellow,incongruent,upside_down,y,1,898.0
8,stroop_mfu38,.50,key,green,green,congruent,upright,g,1,669.0
9,stroop_mfu38,.50,key,blue,green,incongruent,upright,g,1,861.0
10,stroop_mfu38,.50,key,green,yellow,incongruent,upside_down,y,1,831.0
11,stroop_mfu38,.50,key,yellow,yellow,congruent,upside_down,y,1,481.0
12,stroop_mfu38,.50,key,red,yellow,incongruent,upright,y,1,664.0
13,stroop_mfu38,.50,key,blue,orange,incongruent,upright,o,1,716.0
14,stroop_mfu38,.50,key,green,green,congruent,upside_down,g,1,543.0
15,stroop_mfu38,.50,key,green,green,congruent,upright,g,1,412.0
16,stroop_mfu38,.50,key,orange,orange,congruent,upright,o,1,560.0
17,stroop_mfu38,.50,key,green,red,incongruent,upside_down,r,1,898.0
18,stroop_mfu38,.50,key,red,red,congruent,upside_down,r,1,470.0
19,stroop_mfu38,.50,key,blue,blue,congruent,upside_down,b,1,819.0
20,stroop_mfu38,.50,key,orange,orange,congruent,upside_down,o,1,561.0
21,stroop_mfu38,.50,key,red,yellow,incongruent,upside_down,y,1,850.0
22,stroop_mfu38,.50,key,red,red,congruent,upright,r,1,672.0
23,stroop_mfu38,.50,key,yellow,blue,incongruent,upright,b,1,842.0
24,stroop_mfu38,.50,key,red,green,incongruent,upside_down,g,1,913.0
25,stroop_mfu38,.50,key,green,green,congruent,upright,g,1,559.0
26,stroop_mfu38,.50,key,orange,orange,congruent,upside_down,o,1,442.0
27,stroop_mfu38,.50,key,blue,green,incongruent,upside_down,g,1,1056.0
28,stroop_mfu38,.50,key,red,orange,incongruent,upright,o,1,1117.0
29,stroop_mfu38,.50,key,green,orange,incongruent,upright,o,1,461.0
30,stroop_mfu38,.50,key,blue,red,incongruent,upright,r,1,885.0
31,stroop_mfu38,.50,key,yellow,yellow,congruent,upside_down,y,1,554.0
32,stroop_mfu38,.50,key,red,red,congruent,upright,r,1,703.0
33,stroop_mfu38,.50,key,red,orange,incongruent,upside_down,r,0,776.0
34,stroop_mfu38,.50,key,orange,orange,congruent,upright,o,1,401.0
35,stroop_mfu38,.50,key,orange,orange,congruent,upside_down,o,1,380.0
36,stroop_mfu38,.50,key,green,green,congruent,upside_down,g,1,605.0
37,stroop_mfu38,.50,key,yellow,orange,incongruent,upside_down,o,1,615.0
38,stroop_mfu38,.50,key,yellow,orange,incongruent,upright,o,1,405.0
39,stroop_mfu38,.50,key,orange,blue,incongruent,upright,b,1,753.0
40,stroop_mfu38,.50,key,orange,red,incongruent,upside_down,r,1,761.0
41,stroop_mfu38,.50,key,yellow,orange,incongruent,upright,o,1,627.0
42,stroop_mfu38,.50,key,blue,blue,congruent,upright,b,1,598.0
43,stroop_mfu38,.50,key,red,red,congruent,upside_down,r,1,556.0
44,stroop_mfu38,.50,key,red,red,congruent,upside_down,r,1,462.0
45,stroop_mfu38,.50,key,yellow,blue,incongruent,upright,o,0,717.0
46,stroop_mfu38,.50,key,red,red,congruent,upright,r,1,543.0
47,stroop_mfu38,.50,key,orange,orange,congruent,upside_down,o,1,450.0
48,stroop_mfu38,.50,key,orange,orange,congruent,upright,o,1,385.0
49,stroop_mfu38,.50,key,green,green,congruent,upright,g,1,652.0
50,stroop_mfu38,.50,key,blue,orange,incongruent,upside_down,o,1,548.0
51,stroop_mfu38,.50,key,blue,orange,incongruent,upside_down,o,1,603.0
52,stroop_mfu38,.50,key,green,green,congruent,upside_down,g,1,532.0
53,stroop_mfu38,.50,key,green,orange,incongruent,upright,o,1,501.0
54,stroop_mfu38,.50,key,green,green,congruent,upright,g,1,485.0
55,stroop_mfu38,.50,key,red,yellow,incongruent,upside_down,y,1,996.0
56,stroop_mfu38,.50,key,blue,red,incongruent,upright,r,1,758.0
57,stroop_mfu38,.50,key,blue,red,incongruent,upright,r,1,552.0
58,stroop_mfu38,.50,key,blue,orange,incongruent,upside_down,o,1,713.0
59,stroop_mfu38,.50,key,red,blue,incongruent,upright,b,1,662.0
60,stroop_mfu38,.50,key,blue,green,incongruent,upside_down,g,1,1349.0
61,stroop_mfu38,.50,key,red,red,congruent,upright,r,1,559.0
62,stroop_mfu38,.50,key,blue,blue,congruent,upside_down,b,1,572.0
63,stroop_mfu38,.50,key,yellow,yellow,congruent,upside_down,y,1,666.0
64,stroop_mfu38,.50,key,green,green,congruent,upside_down,g,1,556.0
65,stroop_mfu38,.50,key,yellow,red,incongruent,upright,r,1,772.0
66,stroop_mfu38,.50,key,green,orange,incongruent,upside_down,g,0,611.0
67,stroop_mfu38,.50,key,red,red,congruent,upright,r,1,516.0
68,stroop_mfu38,.50,key,green,blue,incongruent,upright,b,1,1367.0
69,stroop_mfu38,.50,key,yellow,red,incongruent,upside_down,y,0,630.0
70,stroop_mfu38,.50,key,yellow,yellow,congruent,upright,y,1,535.0
71,stroop_mfu38,.50,key,blue,blue,congruent,upright,b,1,584.0
72,stroop_mfu38,.50,key,orange,orange,congruent,upside_down,o,1,481.0
73,stroop_mfu38,.50,key,red,red,congruent,upright,r,1,595.0
74,stroop_mfu38,.50,key,green,yellow,incongruent,upside_down,y,1,834.0
75,stroop_mfu38,.50,key,blue,green,incongruent,upright,g,1,1126.0
76,stroop_mfu38,.50,key,orange,orange,congruent,upright,o,1,553.0
77,stroop_mfu38,.50,key,orange,orange,congruent,upright,o,1,397.0
78,stroop_mfu38,.50,key,green,red,incongruent,upside_down,r,1,886.0
79,stroop_mfu38,.50,key,orange,orange,congruent,upside_down,o,1,454.0
80,stroop_mfu38,.50,key,yellow,red,incongruent,upside_down,r,1,788.0
81,stroop_mfu38,.50,key,orange,yellow,incongruent,upside_down,o,0,646.0
82,stroop_mfu38,.50,key,orange,yellow,incongruent,upside_down,y,1,657.0
83,stroop_mfu38,.50,key,red,red,congruent,upright,r,1,515.0
84,stroop_mfu38,.50,key,orange,orange,congruent,upside_down,o,1,458.0
85,stroop_mfu38,.50,key,yellow,orange,incongruent,upright,o,1,1183.0
86,stroop_mfu38,.50,key,red,yellow,incongruent,upright,y,1,933.0
87,stroop_mfu38,.50,key,blue,orange,incongruent,upside_down,b,0,736.0
88,stroop_mfu38,.50,key,blue,blue,congruent,upside_down,b,1,719.0
89,stroop_mfu38,.50,key,red,blue,incongruent,upside_down,r,0,633.0
90,stroop_mfu38,.50,key,green,green,congruent,upright,g,1,735.0
91,stroop_mfu38,.50,key,green,blue,incongruent,upright,g,0,675.0
92,stroop_mfu38,.50,key,orange,orange,congruent,upright,o,1,508.0
93,stroop_mfu38,.50,key,yellow,blue,incongruent,upside_down,b,1,854.0
94,stroop_mfu38,.50,key,blue,yellow,incongruent,upside_down,y,1,743.0
95,stroop_mfu38,.50,key,blue,blue,congruent,upright,b,1,647.0
96,stroop_mfu38,.50,key,red,red,congruent,upright,r,1,532.0
97,stroop_mfu38,.50,key,blue,blue,congruent,upside_down,b,1,509.0
98,stroop_mfu38,.50,key,red,red,congruent,upright,r,1,582.0
99,stroop_mfu38,.50,key,yellow,yellow,congruent,upside_down,y,1,594.0
100,stroop_mfu38,.50,key,green,orange,incongruent,upright,o,1,867.0
1,stroop_oliviagsz0223,0.5,key,red,red,congruent,upside_down,r,1,1223
2,stroop_oliviagsz0223,0.5,key,orange,orange,congruent,upside_down,o,1,827
3,stroop_oliviagsz0223,0.5,key,blue,blue,congruent,upside_down,b,1,804
4,stroop_oliviagsz0223,0.5,key,yellow,yellow,congruent,upside_down,y,1,848
5,stroop_oliviagsz0223,0.5,key,green,green,congruent,upright,g,1,1267
6,stroop_oliviagsz0223,0.5,key,orange,green,incongruent,upright,o,0,1844
7,stroop_oliviagsz0223,0.5,key,red,red,congruent,upside_down,r,1,802
8,stroop_oliviagsz0223,0.5,key,red,blue,incongruent,upside_down,b,1,1031
9,stroop_oliviagsz0223,0.5,key,orange,orange,congruent,upright,o,1,621
10,stroop_oliviagsz0223,0.5,key,red,orange,incongruent,upright,r,0,796
11,stroop_oliviagsz0223,0.5,key,yellow,blue,incongruent,upright,b,1,939
12,stroop_oliviagsz0223,0.5,key,blue,blue,congruent,upright,b,1,582
13,stroop_oliviagsz0223,0.5,key,orange,green,incongruent,upside_down,o,0,866
14,stroop_oliviagsz0223,0.5,key,blue,green,incongruent,upside_down,g,1,986
15,stroop_oliviagsz0223,0.5,key,yellow,yellow,congruent,upright,y,1,870
16,stroop_oliviagsz0223,0.5,key,blue,blue,congruent,upright,b,1,604
17,stroop_oliviagsz0223,0.5,key,blue,yellow,incongruent,upside_down,b,0,811
18,stroop_oliviagsz0223,0.5,key,yellow,yellow,congruent,upside_down,y,1,670
19,stroop_oliviagsz0223,0.5,key,blue,blue,congruent,upright,b,1,613
20,stroop_oliviagsz0223,0.5,key,blue,orange,incongruent,upside_down,o,1,1017
21,stroop_oliviagsz0223,0.5,key,blue,yellow,incongruent,upside_down,y,1,1175
22,stroop_oliviagsz0223,0.5,key,yellow,yellow,congruent,upright,y,1,581
23,stroop_oliviagsz0223,0.5,key,yellow,yellow,congruent,upright,y,1,481
24,stroop_oliviagsz0223,0.5,key,blue,blue,congruent,upright,b,1,622
25,stroop_oliviagsz0223,0.5,key,green,green,congruent,upside_down,g,1,733
26,stroop_oliviagsz0223,0.5,key,green,red,incongruent,upright,g,0,592
27,stroop_oliviagsz0223,0.5,key,red,red,congruent,upside_down,r,1,609
28,stroop_oliviagsz0223,0.5,key,blue,blue,congruent,upright,b,1,556
29,stroop_oliviagsz0223,0.5,key,orange,green,incongruent,upside_down,g,1,1233
30,stroop_oliviagsz0223,0.5,key,green,yellow,incongruent,upside_down,y,1,936
31,stroop_oliviagsz0223,0.5,key,red,blue,incongruent,upright,b,1,823
32,stroop_oliviagsz0223,0.5,key,red,blue,incongruent,upside_down,b,1,785
33,stroop_oliviagsz0223,0.5,key,orange,blue,incongruent,upright,b,1,947
34,stroop_oliviagsz0223,0.5,key,yellow,yellow,congruent,upright,y,1,769
35,stroop_oliviagsz0223,0.5,key,yellow,blue,incongruent,upright,b,1,851
36,stroop_oliviagsz0223,0.5,key,orange,orange,congruent,upside_down,o,1,854
37,stroop_oliviagsz0223,0.5,key,blue,blue,congruent,upside_down,b,1,867
38,stroop_oliviagsz0223,0.5,key,red,yellow,incongruent,upside_down,y,1,863
39,stroop_oliviagsz0223,0.5,key,blue,orange,incongruent,upright,o,1,866
40,stroop_oliviagsz0223,0.5,key,green,green,congruent,upside_down,g,1,935
41,stroop_oliviagsz0223,0.5,key,yellow,green,incongruent,upright,g,1,945
42,stroop_oliviagsz0223,0.5,key,green,green,congruent,upside_down,g,1,637
43,stroop_oliviagsz0223,0.5,key,blue,blue,congruent,upright,b,1,561
44,stroop_oliviagsz0223,0.5,key,green,green,congruent,upside_down,g,1,641
45,stroop_oliviagsz0223,0.5,key,orange,yellow,incongruent,upright,y,1,909
46,stroop_oliviagsz0223,0.5,key,green,blue,incongruent,upside_down,b,1,789
47,stroop_oliviagsz0223,0.5,key,blue,red,incongruent,upside_down,r,1,884
48,stroop_oliviagsz0223,0.5,key,orange,orange,congruent,upside_down,o,1,853
49,stroop_oliviagsz0223,0.5,key,yellow,yellow,congruent,upside_down,y,1,794
50,stroop_oliviagsz0223,0.5,key,red,green,incongruent,upright,g,1,822
51,stroop_oliviagsz0223,0.5,key,blue,green,incongruent,upright,g,1,1074
52,stroop_oliviagsz0223,0.5,key,orange,red,incongruent,upright,r,1,712
53,stroop_oliviagsz0223,0.5,key,orange,red,incongruent,upright,r,1,809
54,stroop_oliviagsz0223,0.5,key,red,blue,incongruent,upside_down,b,1,703
55,stroop_oliviagsz0223,0.5,key,green,yellow,incongruent,upright,y,1,1041
56,stroop_oliviagsz0223,0.5,key,yellow,blue,incongruent,upside_down,b,1,809
57,stroop_oliviagsz0223,0.5,key,yellow,yellow,congruent,upright,y,1,1074
58,stroop_oliviagsz0223,0.5,key,blue,blue,congruent,upside_down,b,1,546
59,stroop_oliviagsz0223,0.5,key,orange,blue,incongruent,upright,b,1,1181
60,stroop_oliviagsz0223,0.5,key,blue,orange,incongruent,upright,o,1,834
61,stroop_oliviagsz0223,0.5,key,orange,green,incongruent,upright,g,1,960
62,stroop_oliviagsz0223,0.5,key,red,orange,incongruent,upright,o,1,1168
63,stroop_oliviagsz0223,0.5,key,green,blue,incongruent,upright,b,1,978
64,stroop_oliviagsz0223,0.5,key,green,green,congruent,upright,g,1,657
65,stroop_oliviagsz0223,0.5,key,blue,yellow,incongruent,upside_down,y,1,797
66,stroop_oliviagsz0223,0.5,key,red,blue,incongruent,upside_down,b,1,1141
67,stroop_oliviagsz0223,0.5,key,red,red,congruent,upside_down,r,1,615
68,stroop_oliviagsz0223,0.5,key,green,green,congruent,upside_down,g,1,709
69,stroop_oliviagsz0223,0.5,key,orange,orange,congruent,upside_down,o,1,596
70,stroop_oliviagsz0223,0.5,key,red,orange,incongruent,upright,o,1,1205
71,stroop_oliviagsz0223,0.5,key,orange,yellow,incongruent,upright,o,0,556
72,stroop_oliviagsz0223,0.5,key,red,red,congruent,upright,r,1,573
73,stroop_oliviagsz0223,0.5,key,red,green,incongruent,upright,g,1,793
74,stroop_oliviagsz0223,0.5,key,orange,orange,congruent,upside_down,o,1,586
75,stroop_oliviagsz0223,0.5,key,red,red,congruent,upside_down,r,1,537
76,stroop_oliviagsz0223,0.5,key,red,red,congruent,upright,r,1,506
77,stroop_oliviagsz0223,0.5,key,green,green,congruent,upright,g,1,635
78,stroop_oliviagsz0223,0.5,key,orange,orange,congruent,upright,o,1,547
79,stroop_oliviagsz0223,0.5,key,blue,blue,congruent,upside_down,b,1,748
80,stroop_oliviagsz0223,0.5,key,blue,yellow,incongruent,upside_down,g,0,404
81,stroop_oliviagsz0223,0.5,key,orange,green,incongruent,upright,g,1,849
82,stroop_oliviagsz0223,0.5,key,yellow,yellow,congruent,upside_down,y,1,568
83,stroop_oliviagsz0223,0.5,key,green,green,congruent,upright,g,1,551
84,stroop_oliviagsz0223,0.5,key,green,green,congruent,upside_down,g,1,579
85,stroop_oliviagsz0223,0.5,key,yellow,green,incongruent,upside_down,g,1,785
86,stroop_oliviagsz0223,0.5,key,orange,orange,congruent,upright,o,1,611
87,stroop_oliviagsz0223,0.5,key,red,yellow,incongruent,upright,y,1,1072
88,stroop_oliviagsz0223,0.5,key,green,blue,incongruent,upside_down,b,1,1389
89,stroop_oliviagsz0223,0.5,key,red,red,congruent,upright,r,1,651
90,stroop_oliviagsz0223,0.5,key,red,red,congruent,upside_down,r,1,554
91,stroop_oliviagsz0223,0.5,key,blue,green,incongruent,upside_down,g,1,862
92,stroop_oliviagsz0223,0.5,key,red,yellow,incongruent,upside_down,y,1,687
93,stroop_oliviagsz0223,0.5,key,green,green,congruent,upside_down,g,1,843
94,stroop_oliviagsz0223,0.5,key,red,yellow,incongruent,upside_down,y,1,735
95,stroop_oliviagsz0223,0.5,key,orange,orange,congruent,upside_down,o,1,540
96,stroop_oliviagsz0223,0.5,key,orange,red,incongruent,upright,r,1,482
97,stroop_oliviagsz0223,0.5,key,orange,red,incongruent,upright,r,1,487
98,stroop_oliviagsz0223,0.5,key,red,red,congruent,upright,r,1,490
99,stroop_oliviagsz0223,0.5,key,red,red,congruent,upright,r,1,458
100,stroop_oliviagsz0223,0.5,key,red,green,incongruent,upside_down,g,1,674
